#time,accel_x,accel_y,accel_z
2953.641796,-33.518823,282.515796,-9830.592017
2953.642041,-4.788403,277.727393,-9864.110840
2953.642287,33.518823,368.707056,-9969.455713
2953.642532,-33.518823,363.918652,-9964.667310
2953.642777,-28.730420,258.573779,-9945.513696
2953.643022,4.788403,186.747729,-10055.646973
2953.643267,110.133276,186.747729,-9979.032520
2953.643512,114.921680,225.054956,-9892.841260
2953.643757,143.652100,220.266553,-9821.015210
2953.644002,162.805713,210.689746,-9840.168823
2953.644247,100.556470,272.938989,-9950.302100
2953.644493,90.979663,325.611426,-9950.302100
2953.644738,124.498486,263.362183,-9758.765967
2953.644983,124.498486,191.536133,-9883.264453
2953.645228,100.556470,148.440503,-9926.360083
2953.645473,19.153613,181.959326,-9873.687646
2953.645718,153.228906,-4.788403,-9849.745630
2953.645963,196.324536,105.344873,-9825.803613
2953.646208,143.652100,306.457812,-9816.226807
2953.646454,148.440503,292.092603,-9763.554370
2953.646699,110.133276,368.707056,-9797.073193
2953.646944,62.249243,502.782349,-9902.418066
2953.647189,162.805713,488.417139,-9926.360083
2953.647434,138.863696,229.843359,-9940.725293
2953.647679,114.921680,172.382520,-9907.206470
2953.647924,162.805713,62.249243,-9797.073193
2953.648169,57.460840,76.614453,-9773.131177
2953.648415,-28.730420,143.652100,-9830.592017
2953.648660,105.344873,296.881006,-9854.534033
2953.648905,129.286890,397.437476,-9897.629663
2953.649150,95.768066,306.457812,-9806.650000
2953.649395,158.017310,100.556470,-9835.380420
2953.649640,114.921680,114.921680,-9916.783276
2953.649885,38.307227,177.170923,-9940.725293
2953.650130,81.402856,28.730420,-9945.513696
2953.650376,67.037646,86.191260,-9873.687646
2953.650621,23.942017,244.208569,-9844.957227
2953.650866,62.249243,402.225879,-9998.186133
2953.651111,19.153613,363.918652,-9864.110840
2953.651356,14.365210,282.515796,-9940.725293
2953.651601,62.249243,205.901343,-10022.128149
2953.651846,52.672437,105.344873,-9873.687646
2953.652091,76.614453,57.460840,-9825.803613
2953.652336,4.788403,114.921680,-9931.148486
2953.652582,4.788403,148.440503,-9840.168823
2953.652827,-28.730420,225.054956,-9955.090503
2953.653072,62.249243,349.553442,-9959.878906
2953.653317,81.402856,339.976636,-9959.878906
2953.653562,110.133276,210.689746,-9753.977563
2953.653807,143.652100,210.689746,-9825.803613
2953.654052,105.344873,225.054956,-10007.762939
2953.654297,158.017310,210.689746,-9931.148486
2953.654543,148.440503,71.826050,-9916.783276
2953.654788,119.710083,86.191260,-10012.551343
2953.655033,105.344873,201.112939,-9931.148486
2953.655278,110.133276,225.054956,-9797.073193
2953.655523,105.344873,205.901343,-9873.687646
2953.655768,105.344873,158.017310,-9878.476050
2953.656013,196.324536,-76.614453,-9969.455713
2953.656258,282.515796,-737.414111,-9859.322437
2953.656504,229.843359,-1450.886206,-9763.554370
2953.656749,253.785376,-2264.914771,-9605.537061
2953.656994,110.133276,-3342.305518,-9686.939917
2953.657239,81.402856,-4592.078784,-9749.189160
2953.657484,-86.191260,-5573.701465,-9677.363110
2953.657729,-330.399829,-6358.999609,-9821.015210
2953.657974,-584.185205,-7019.799268,-9744.400757
2953.658219,-933.738647,-7302.315063,-9749.189160
2953.658465,-1345.541333,-6603.208179,-10141.838232
2953.658710,-1613.691919,-5506.663818,-10314.220752
2953.658955,-2025.494604,-4098.873242,-10381.258398
2953.659200,-2442.085693,-2403.778467,-10644.620581
2953.659445,-2777.273926,-335.188232,-10625.466968
2953.659690,-2940.079639,1656.787549,-10797.849487
2953.659935,-2762.908716,3308.786694,-10702.081421
2953.660180,-2379.836450,4467.580298,-10338.162769
2953.660425,-1910.572925,5401.318945,-10357.316382
2953.660671,-507.570752,6675.034229,-10113.107813
2953.660916,1412.578979,8518.569507,-10117.896216
2953.661161,2116.474268,10160.991846,-9624.690674
2953.661406,2375.048047,10529.698901,-9188.945972
2953.661651,3193.865015,8892.064966,-9356.540088
2953.661896,3825.934253,6555.324146,-8872.911353
2953.662141,4606.443994,4304.774585,-8791.508496
2953.662386,5329.492896,2667.140649,-9059.659082
2953.662632,4922.478613,1939.303345,-8341.398584
2953.662877,3840.299463,2844.311572,-8307.879761
2953.663122,2628.833423,4774.038110,-8470.685474
2953.663367,1671.152759,7062.894897,-8844.180933
2953.663612,1656.787549,10295.067139,-9686.939917
2953.663857,1790.862842,13814.543579,-9102.754712
2953.664102,1556.231079,16175.226416,-8863.334546
2953.664347,1235.408057,16883.910107,-8695.740430
2953.664593,881.066211,16270.994482,-8734.047656
2953.664838,823.605371,14767.435840,-10247.183105
2953.665083,1403.002173,12085.929980,-10572.794531
2953.665328,1900.996118,8389.282617,-10046.070166
2953.665573,2183.511914,3825.934253,-9097.966309
2953.665818,2039.859814,-1580.173096,-8336.610181
2953.666063,1517.923853,-7043.741284,-9169.792358
2953.666308,746.990918,-11386.823096,-10338.162769
2953.666553,-1259.350073,-14604.630127,-10649.408984
2953.666799,-2901.772412,-16735.469604,-10903.194360
2953.667044,-2954.444849,-17247.828760,-10290.278735
2953.667289,-3495.534424,-12454.637036,-10228.029492
2953.667534,-4050.989209,-5784.391211,-12018.892334
2953.667779,-4893.748193,-4060.566016,-12923.900562
2953.668024,-5813.121631,-4060.566016,-12947.842578
2953.668269,-5913.678101,-3442.861987,-12301.408130
2953.668514,-4606.443994,-3888.183496,-11228.805786
2953.668760,-3083.731738,-3955.221143,-11611.878052
2953.669005,-2494.758130,-3490.746021,-12679.691992
2953.669250,-2624.045020,-5372.588525,-12430.695020
2953.669495,-3122.038965,-10524.910498,-12344.503760
2953.669740,-3725.377783,-17812.860352,-10893.617554
2953.669985,-2849.099976,-24181.436768,-10553.640918
2953.670230,-1144.428394,-25723.302637,-11118.672510
2953.670475,210.689746,-23314.735767,-10462.661255
2953.670721,474.051929,-20298.041675,-10615.890161
2953.670966,-454.898315,-18325.219507,-9102.754712
2953.671211,-1240.196460,-15844.826587,-8465.897070
2953.671456,-1776.497632,-10726.023438,-10338.162769
2953.671701,-2169.146704,-3179.499805,-10812.214697
2953.671946,-2485.181323,4247.313745,-11520.898389
2953.672191,-2504.334937,7182.604980,-9787.496387
2953.672436,-871.489404,2087.743848,-7445.967163
2953.672682,1714.248389,-5659.892725,-7125.144141
2953.672927,1388.636963,-5846.640454,-8135.497241
2953.673172,1398.213770,-814.028564,-9107.543115
2953.673417,2035.071411,9816.226807,-10491.391675
2953.673662,1848.323682,21025.878979,-7388.506323
2953.673907,3643.974927,23783.999292,-4970.362646
2953.674152,5918.466504,16783.353638,-6272.808350
2953.674397,6081.272217,5592.855078,-4486.733911
2953.674642,7240.065820,-1833.958472,-8777.143286
2953.674888,6670.245825,742.202515,-8547.299927
2953.675133,5908.889697,8245.630518,-6138.733057
2953.675378,6138.733057,14757.859033,-7216.123804
2953.675623,6722.918262,17717.092285,-4180.276099
2953.675868,7053.318091,19062.633618,-7311.891870
2953.676113,7144.297754,21193.473096,-10505.756885
2953.676358,6426.037256,24214.955591,-10050.858569
2953.676603,5559.336255,26637.887671,-11042.058057
2953.676849,4908.113403,27820.623291,-8350.975391
2953.677094,4304.774585,27092.785986,-8006.210352
2953.677339,3778.050220,23889.344165,-10726.023438
2953.677584,3184.288208,19876.662183,-11195.286963
2953.677829,2116.474268,17338.808423,-12689.268799
2953.678074,948.103857,14676.456177,-11568.782422
2953.678319,426.167896,9054.870679,-9141.061938
2953.678564,-833.182178,742.202515,-9658.209497
2953.678810,-3438.073584,-6330.269189,-10970.232007
2953.679055,-5066.130713,-9586.383447,-13776.236353
2953.679300,-6086.060620,-8863.334546,-14384.363574
2953.679545,-6210.559106,-6981.492041,-12650.961572
2953.679790,-4960.785840,-8858.546143,-11334.150659
2953.680035,-3969.586353,-14336.479541,-10103.531006
2953.680280,-4228.160132,-14106.636182,-12363.657373
2953.680525,-5597.643481,-8159.439258,-15524.003564
2953.680771,-6449.979272,-5908.889697,-15672.444067
2953.681016,-5444.414575,-6847.416748,-14642.937354
2953.681261,-3734.954590,-10319.009155,-9983.820923
2953.681506,-2647.987036,-13608.642236,-9447.519751
2953.681751,-3299.209888,-13761.871143,-11104.307300
2953.681996,-5755.660791,-9136.273535,-13637.372656
2953.682241,-8250.418921,-5008.669873,-16840.814478
2953.682486,-8164.227661,-4434.061475,-12612.654346
2953.682731,-7168.239771,-11161.768140,-9715.670337
2953.682977,-6268.019946,-21595.698975,-7503.428003
2953.683222,-4639.962817,-29094.338574,-7608.772876
2953.683467,-3754.108203,-31359.253345,-11066.000073
2953.683712,-2853.888379,-30918.720239,-10635.043774
2953.683957,-2762.908716,-29726.407812,-9519.345801
2953.684202,-3069.366528,-26949.133887,-6493.074902
2953.684447,-2504.334937,-22199.037793,-5463.568188
2953.684692,-1833.958472,-14369.998364,-7642.291699
2953.684938,-1561.019482,-5396.530542,-10606.313354
2953.685183,-699.106885,2595.314600,-10620.678564
2953.685428,-363.918652,5880.159277,-8298.302954
2953.685673,248.996973,3040.636108,-5640.739111
2953.685918,1618.480322,-6023.811377,-5707.776758
2953.686163,2030.283008,-9461.884961,-7795.520605
2953.686408,1513.135449,-5995.080957,-10831.368311
2953.686653,4070.142822,3792.415430,-9519.345801
2953.686899,4362.235425,17037.139014,-7843.404639
2953.687144,6282.385156,23453.599463,-3921.702319
2953.687389,7173.028174,22017.078467,-3797.203833
2953.687634,6981.492041,13225.569971,-8192.958081
2953.687879,7153.874561,4831.498950,-8805.873706
2953.688124,8068.459595,3294.421484,-11635.820068
2953.688369,7872.135059,10084.377393,-6521.805322
2953.688614,8633.491187,17760.187915,-4472.368701
2953.688860,8930.372192,23563.732739,-4831.498950
2953.689105,8154.650854,25838.224316,-6919.242798
2953.689350,7216.123804,27250.803296,-12406.753003
2953.689595,6124.367847,28845.341602,-12713.210815
2953.689840,6411.672046,30607.474023,-11305.420239
2953.690085,7216.123804,31646.557544,-8365.340601
2953.690330,7431.601953,30181.306128,-7120.355737
2953.690575,6607.996582,25067.291382,-10184.933862
2953.690820,5420.472559,18559.851270,-13350.068457
2953.691066,4515.464331,14192.827441,-14274.230298
2953.691311,3476.380811,12708.422412,-13005.303418
2953.691556,1350.329736,11286.266626,-9016.563452
2953.691801,-181.959326,8207.323291,-9011.775049
2953.692046,-1637.633936,3251.325854,-10654.197388
2953.692291,-3993.528369,-1757.344019,-13259.088794
2953.692536,-5501.875415,-5358.223315,-16199.168433
2953.692781,-6047.753394,-8197.746484,-13800.178369
2953.693027,-5702.988354,-10539.275708,-11046.846460
2953.693272,-4601.655591,-14130.578198,-9279.925635
2953.693517,-3907.337109,-16874.333301,-10534.487305
2953.693762,-4893.748193,-13728.352319,-15198.392139
2953.694007,-4386.177441,-8868.122949,-14949.395166
2953.694252,-4458.003491,-8374.917407,-14858.415503
2953.694497,-4534.617944,-10218.452686,-10826.579907
2953.694742,-3581.725684,-11678.915698,-8212.111694
2953.694988,-3371.035937,-12301.408130,-11099.518896
2953.695233,-4204.218115,-9691.728320,-11856.086621
2953.695478,-6809.109521,-6416.460449,-17017.985400
2953.695723,-8561.665137,-6962.338428,-12885.593335
2953.695968,-7896.077075,-13488.932153,-9457.096558
2953.696213,-7441.178760,-24100.033911,-7996.633545
2953.696458,-5937.620117,-34107.796851,-6224.924316
2953.696703,-4965.574243,-38465.243872,-11415.553516
2953.696949,-5018.246680,-37454.890771,-10371.681592
2953.697194,-4984.727856,-33624.168115,-10299.855542
2953.697439,-5013.458276,-28198.907153,-6880.935571
2953.697684,-3983.951562,-22649.147705,-4663.904834
2953.697929,-3342.305518,-15787.365747,-7728.482959
2953.698174,-2667.140649,-7302.315063,-9706.093530
2953.698419,-2370.259644,1058.237134,-11722.011328
2953.698664,-2370.259644,6651.092212,-9514.557397
2953.698909,-2758.120312,8006.210352,-6924.031201
2953.699155,-2384.624854,4156.334082,-6512.228516
2953.699400,62.249243,-8207.323291,-7929.595898
2953.699645,1872.265698,-15342.044238,-9864.110840
2953.699890,1757.344019,-11123.460913,-10658.985791
2953.700135,3557.783667,-1192.312427,-6665.457422
2953.700380,4841.075757,15030.798022,-5693.411548
2953.700625,4213.794922,28668.170679,-4089.296436
2953.700870,5707.776758,30344.111841,-6732.495068
2953.701116,5564.124658,21705.832251,-10965.443604
2953.701361,5353.434912,9466.673364,-8068.459595
2953.701606,8001.421948,3514.688037,-9016.563452
2953.701851,8140.285645,9509.768994,-4462.791895
2953.702096,7867.346655,19747.375293,-3749.319800
2953.702341,7426.813550,27169.400439,-9002.198242
2953.702586,6612.784985,29333.758740,-8408.436230
2953.702831,4620.809204,30985.757886,-12722.787622
2953.703077,6397.306836,32953.791650,-11817.779395
2953.703322,8097.190015,36090.195825,-8250.418921
2953.703567,9217.676392,36478.056494,-9854.534033
2953.703812,8480.262280,32594.661401,-7848.193042
2953.704057,5463.568188,24655.488696,-11377.246289
2953.704302,3964.797949,15969.325073,-14360.421558
2953.704547,4218.583325,10084.377393,-12243.947290
2953.704792,4601.655591,8714.894043,-12004.527124
2953.705038,3064.578125,8231.265308,-8757.989673
2953.705283,1029.506714,5765.237598,-8025.363965
2953.705528,-1513.135449,1364.694946,-11109.095703
2953.705773,-3495.534424,-3375.824341,-13153.743921
2953.706018,-3581.725684,-5798.756421,-15203.180542
2953.706263,-2700.659473,-7714.117749,-13407.529297
2953.706508,-1187.524023,-9303.867651,-9533.711011
2953.706753,-1163.582007,-10357.316382,-9212.887988
2953.706998,-3811.569043,-10807.426294,-11247.959399
2953.707244,-4874.594580,-11932.701074,-15260.641382
2953.707489,-2667.140649,-12785.036865,-16448.165405
2953.707734,-1479.616626,-14853.627100,-13646.949463
2953.707979,-885.854614,-16275.782886,-9490.615381
2953.708224,-2331.952417,-16673.220361,-8288.726147
2953.708469,-3356.670728,-14077.905762,-10050.858569
2953.708714,-4443.638281,-10022.128149,-15792.154150
2953.708959,-5995.080957,-9203.311182,-15974.113477
2953.709205,-5592.855078,-14073.117358,-12842.497705
2953.709450,-5789.179614,-22519.860815,-8949.525806
2953.709695,-5506.663818,-30564.378394,-5061.342310
2953.709940,-4659.116431,-36688.746240,-8963.891016
2953.710185,-4678.270044,-39734.170752,-11056.423267
2953.710430,-4879.382983,-39614.460669,-12263.100903
2953.710675,-5372.588525,-35003.228271,-10132.261426
2953.710920,-5918.466504,-26398.467505,-4836.287354
2953.711166,-5746.083984,-17219.098340,-5803.544824
2953.711411,-5281.608862,-8322.244971,-8250.418921
2953.711656,-4352.658618,-469.263525,-11937.489478
2953.711901,-3629.609717,4424.484668,-12205.640063
2953.712146,-4434.061475,6263.231543,-8470.685474
2953.712391,-5707.776758,6770.802295,-5760.449194
2953.712636,-4941.632227,4108.450049,-6847.416748
2953.712881,-2590.526196,-4290.409375,-9682.151514
2953.713127,1503.558643,-11621.454858,-10860.098730
2953.713372,1412.578979,-8887.276562,-10060.435376
2953.713617,2968.810059,-2475.604517,-3610.456104
2953.713862,3327.940308,11918.335864,-3213.018628
2953.714107,1987.187378,26843.789014,-5272.032056
2953.714352,3979.163159,30846.894189,-8049.305981
2953.714597,5161.898779,23922.862988,-13168.109131
2953.714842,5535.394238,13077.129468,-6560.112549
2953.715087,6971.915234,5803.544824,-5099.649536
2953.715333,6756.437085,11219.228979,-3715.800977
2953.715578,6172.251880,22457.611572,-4888.959790
2953.715823,5808.333228,31282.638892,-13005.303418
2953.716068,4855.440967,35539.529443,-11487.379565
2953.716313,5583.278271,35755.007593,-10625.466968
2953.716558,7536.946826,35917.813306,-8001.421948
2953.716803,8451.531860,35812.468433,-6181.828687
2953.717048,8034.940771,34768.596509,-10625.466968
2953.717294,5995.080957,30497.340747,-13498.508960
2953.717539,4271.255762,22907.721484,-13594.277026
2953.717784,3969.586353,14403.517187,-13043.610645
2953.718029,4376.600635,8307.879761,-8762.778076
2953.718274,3653.551733,6215.347510,-8207.323291
2953.718519,2130.839478,6047.753394,-11822.567798
2953.718764,186.747729,5592.855078,-12258.312500
2953.719009,-1316.810913,2887.407202,-14700.398193
2953.719255,-1158.793604,-2006.340991,-12919.112158
2953.719500,-258.573779,-6521.805322,-10328.585962
2953.719745,1177.947217,-8121.132031,-10960.655200
2953.719990,1412.578979,-8963.891016,-10706.869824
2953.720235,-502.782349,-10103.531006,-13608.642236
2953.720480,-4582.501978,-12057.199561,-16074.669946
2953.720725,-3131.615771,-14393.940381,-13029.245435
2953.720970,526.724365,-15787.365747,-13215.993164
2953.721215,560.243188,-17017.985400,-10113.107813
2953.721461,-742.202515,-19014.749585,-10108.319409
2953.721706,-3375.824341,-19431.340674,-13584.700220
2953.721951,-4065.354419,-16912.640527,-12559.981909
2953.722196,-3639.186523,-15610.194824,-15433.023901
2953.722441,-2920.926025,-16424.223389,-10869.675537
2953.722686,-1963.245361,-20283.676465,-8614.337573
2953.722931,-3246.537451,-24799.140796,-9265.560425
2953.723176,-4496.310718,-29079.973364,-8360.552197
2953.723422,-4936.843823,-33801.339038,-11434.707129
2953.723667,-4774.038110,-38513.127905,-10989.385620
2953.723912,-3533.841650,-39245.753613,-8499.415894
2953.724157,-3610.456104,-33097.443750,-6445.190869
2953.724402,-5444.414575,-23530.213916,-5683.834741
2953.724647,-7024.587671,-13900.734839,-8327.033374
2953.724892,-7493.851196,-5688.623145,-11209.652173
2953.725137,-5525.817432,723.048901,-11252.747803
2953.725383,-4122.815259,4577.713574,-9078.812695
2953.725628,-5046.977100,6124.367847,-6373.364819
2953.725873,-5817.910034,6775.590698,-5679.046338
2953.726118,-6162.675073,4343.081812,-9351.751685
2953.726363,-3222.595435,-4103.661646,-10745.177051
2953.726608,172.382520,-7967.903125,-10539.275708
2953.726853,770.932935,-5894.524487,-6517.016919
2953.727098,2944.868042,1513.135449,-2068.590234
2953.727344,2312.798804,15035.586426,-4170.699292
2953.727589,1273.715283,26532.542798,-6076.483813
2953.727834,3236.960645,27902.026147,-11252.747803
2953.728079,4563.348364,20197.485205,-10204.087476
2953.728324,5439.626172,11458.649146,-4539.406348
2953.728569,6957.550024,10362.104785,-4467.580298
2953.728817,5631.162305,19177.555298,-3141.192578
2953.729064,4405.331055,29779.080249,-9892.841260
2953.729312,4309.562988,36176.387085,-13134.590308
2953.729559,4304.774585,37842.751440,-11171.344946
2953.729807,5736.507178,36999.992456,-9519.345801
2953.730054,6742.071875,34749.442896,-6028.599780
2953.730302,6722.918262,33150.116187,-8595.183960
2953.730549,5583.278271,30315.381421,-13014.880225
2953.730797,4060.566016,25096.021802,-14336.479541
2953.731044,3318.363501,18315.642700,-14207.192651
2953.731292,3538.630054,10936.713184,-10290.278735
2953.731539,3246.537451,7350.199097,-7872.135059
2953.731787,2786.850732,7015.010864,-10797.849487
2953.732035,1714.248389,7015.010864,-12593.500732
2953.732282,268.150586,5966.350537,-15164.873315
2953.732530,47.884033,1896.207715,-13757.082739
2953.732777,991.199487,-3284.844678,-10568.006128
2953.733025,2035.071411,-6794.744312,-10146.626636
2953.733272,2782.062329,-8547.299927,-10050.858569
2953.733520,1905.784521,-9730.035547,-13603.853833
2953.733767,-2298.433594,-11300.631836,-16208.745239
2953.734015,-3045.424512,-14283.807104,-13934.253662
2953.734262,368.707056,-16309.301709,-12406.753003
2953.734510,780.509741,-17956.512451,-10515.333691
2953.734757,411.802686,-19129.671265,-9806.650000
2953.735005,-1900.996118,-20245.369238,-14494.496851
2953.735252,-3256.114258,-18708.291772,-12698.845605
2953.735500,-2734.178296,-17875.109595,-14800.954663
2953.735748,-1929.726538,-18224.663037,-11329.362256
2953.735995,-316.034619,-20647.595117,-7977.479932
2953.736243,-1058.237134,-24052.149878,-9983.820923
2953.736490,-2207.453931,-27236.438086,-8561.665137
2953.736738,-3399.766357,-31584.308301,-11468.225952
2953.736985,-3648.763330,-37052.664893,-10658.985791
2953.737233,-2715.024683,-39279.272437,-8441.955054
2953.737480,-2403.778467,-34706.347266,-7139.509351
2953.737728,-3792.415430,-25345.018774,-5913.678101
2953.737975,-6387.730029,-15140.931299,-8360.552197
2953.738223,-7963.114722,-7383.717920,-10539.275708
2953.738470,-6871.358765,-1714.248389,-10390.835205
2953.738718,-5008.669873,1963.245361,-9246.406812
2953.738965,-4850.652563,4213.794922,-6833.051538
2953.739213,-6263.231543,6732.495068,-6244.077930
2953.739460,-6732.495068,6306.327173,-8968.679419
2953.739708,-4821.922144,-1168.370410,-9940.725293
2953.739956,-1450.886206,-6646.303809,-9643.844287
2953.740203,-248.996973,-6809.109521,-7675.810522
2953.740451,2284.068384,-1810.016455,-2710.236279
2953.740698,2164.358301,9528.922607,-4908.113403
2953.740946,871.489404,22366.631909,-5128.379956
2953.741193,2250.549561,27973.852197,-9385.270508
2953.741441,2499.546533,24009.054248,-10438.719238
2953.741688,3998.316772,15538.368774,-4711.788867
2953.741936,5597.643481,12076.353174,-6220.135913
2953.742183,4946.420630,18339.584717,-3591.302490
2953.742431,3514.688037,27959.486987,-8221.688501
2953.742678,2930.502832,34687.193652,-12310.984937
2953.742926,2863.465186,36674.381030,-10443.507642
2953.743173,4041.412402,36736.630273,-10165.780249
2953.743421,5003.881470,34926.613818,-7211.335400
2953.743669,5650.315918,32101.455859,-8475.473877
2953.743916,4912.901807,29314.605127,-11923.124268
2953.744164,3529.053247,25282.769531,-13053.187451
2953.744411,3083.731738,19780.894116,-13781.024756
2953.744659,3074.154932,12655.749976,-11420.341919
2953.744906,2772.485522,8432.378247,-9045.293872
2953.745154,2403.778467,7584.830859,-10587.159741
2953.745401,1656.787549,7694.964136,-12119.448804
2953.745649,344.765039,6473.921289,-14111.424585
2953.745896,316.034619,2743.755103,-13838.485596
2953.746144,1407.790576,-1642.422339,-11214.440576
2953.746391,2111.685864,-5415.684155,-10319.009155
2953.746639,2604.891406,-8135.497241,-10295.067139
2953.746886,2188.300317,-9849.745630,-12933.477368
2953.747134,-1599.326709,-10137.049829,-15653.290454
2953.747381,-2513.911743,-12694.057202,-13872.004419
2953.747629,1268.926880,-15643.713647,-12899.958545
2953.747877,1441.309399,-17990.031274,-10754.753857
2953.748124,928.950244,-19254.169751,-9303.867651
2953.748372,-1331.176123,-19795.259326,-13948.618872
2953.748619,-2949.656445,-18602.946899,-12717.999219
2953.748867,-1848.323682,-18076.222534,-15193.603735
2953.749114,-770.932935,-19167.978491,-11846.509814
2953.749362,785.298145,-22548.591235,-7939.172705
2953.749609,-105.344873,-25641.899780,-9988.609326
2953.749857,-1369.483350,-27432.762622,-8183.381274
2953.750104,-2260.126367,-29932.309155,-11774.683765
2953.750352,-2523.488550,-34313.698193,-11271.901416
2953.750599,-1814.804858,-37660.792114,-8192.958081
2953.750847,-1541.865869,-35089.419531,-7723.694556
2953.751094,-3002.328882,-26690.560107,-5339.069702
2953.751342,-5391.742139,-16381.127759,-8394.071021
2953.751589,-7206.546997,-7896.077075,-11434.707129
2953.751837,-6387.730029,-2528.276953,-10515.333691
2953.752085,-4462.791895,1063.025537,-10017.339746
2953.752332,-4429.273071,3643.974927,-6406.883643
2953.752580,-4989.516260,6090.849023,-5889.736084
2953.752827,-5736.507178,6708.553052,-9174.580762
2953.753075,-3572.148877,-268.150586,-10036.493359
2953.753322,-938.527051,-5114.014746,-10122.684619
2953.753570,-277.727393,-6019.022974,-8030.152368
2953.753817,1800.439648,-1407.790576,-2657.563843
2953.754065,1699.883179,9543.287817,-5204.994409
2953.754312,225.054956,22079.327710,-5382.165332
2953.754560,1005.564697,27442.339429,-9514.557397
2953.754807,1355.118140,23458.387866,-10764.330664
2953.755055,2145.204688,14781.801050,-4510.675928
2953.755302,3778.050220,11444.283936,-6387.730029
2953.755550,3414.131567,17396.269263,-3682.282153
2953.755798,2518.700146,26910.826660,-8360.552197
2953.756045,2207.453931,34117.373657,-12138.602417
2953.756293,2466.027710,35994.427759,-10103.531006
2953.756540,3533.841650,36080.619019,-9911.994873
2953.756788,5032.611890,34577.060376,-7134.720947
2953.757035,6186.617090,32431.855688,-8154.650854
2953.757283,5118.803149,29989.769995,-11884.817041
2953.757530,3974.374756,25555.708521,-12622.231152
2953.757778,2992.752075,19488.801514,-13057.975854
2953.758025,2001.552588,12258.312500,-11257.536206
2953.758273,1661.575952,8164.227661,-8801.085303
2953.758520,1407.790576,7757.213379,-10960.655200
2953.758768,287.304199,8355.763794,-12138.602417
2953.759015,-1029.506714,7393.294727,-13800.178369
2953.759263,-1225.831250,3136.404175,-13785.813159
2953.759510,-330.399829,-1896.207715,-11070.788477
2953.759758,1163.582007,-5808.333228,-10649.408984
2953.760006,2231.395947,-8116.343628,-11104.307300
2953.760253,2217.030737,-9169.792358,-12842.497705
2953.760501,-871.489404,-9902.418066,-14810.531470
2953.760748,-1584.961499,-12876.016528,-13623.007446
2953.760996,1838.746875,-15595.829614,-12124.237207
2953.761243,2102.109058,-17875.109595,-11334.150659
2953.761491,1656.787549,-18784.906226,-9873.687646
2953.761738,-560.243188,-18401.833960,-13642.161060
2953.761986,-2164.358301,-16778.565234,-12684.480396
2953.762233,-1321.599316,-17515.979346,-13781.024756
2953.762481,-919.373437,-20527.885034,-11779.472168
2953.762728,378.283862,-25124.752222,-8346.186987
2953.762976,-383.072266,-28921.956055,-10572.794531
2953.763223,-1570.596289,-29951.462769,-8805.873706
2953.763471,-2073.378638,-30257.920581,-11247.959399
2953.763719,-2063.801831,-32565.930981,-10955.866797
2953.763966,-1810.016455,-35410.242554,-8015.787158
2953.764214,-1149.216797,-33710.359375,-7958.326318
2953.764461,-2806.004346,-26259.603809,-6095.637427
2953.764709,-4577.713574,-17156.849097,-9083.601099
2953.764956,-6172.251880,-7785.943799,-11080.365283
2953.765204,-5525.817432,-847.547388,-10366.893188
2953.765451,-3921.702319,3581.725684,-9318.232861
2953.765699,-3940.855933,5262.455249,-6660.669019
2953.765946,-4419.696265,5286.397266,-6952.761621
2953.766194,-4453.215088,-258.573779,-9509.768994
2953.766441,-1953.668555,-6205.770703,-9184.157568
2953.766689,-675.164868,-7086.836914,-9744.400757
2953.766936,723.048901,-3615.244507,-6124.367847
2953.767184,1824.381665,5966.350537,-4280.832568
2953.767431,459.686719,18468.871606,-5616.797095
2953.767679,220.266553,26326.641455,-6200.982300
2953.767927,794.874951,25100.810205,-10797.849487
2953.768174,1599.326709,17223.886743,-7244.854224
2953.768422,3351.882324,9519.345801,-6363.788013
2953.768669,4290.409375,10884.040747,-4970.362646
2953.768917,3155.557788,20345.925708,-4769.249707
2953.769164,2375.048047,29975.404785,-10007.762939
2953.769412,2221.819141,35290.532471,-10242.394702
2953.769659,3299.209888,36501.998511,-10596.736548
2953.769907,4539.406348,36468.479687,-8700.528833
2953.770154,5564.124658,34993.651465,-7469.909180
2953.770402,5635.950708,32489.316528,-9342.174878
2953.770649,4625.597607,28146.234717,-11171.344946
2953.770897,3236.960645,22783.222998,-12679.691992
2953.771144,2509.123340,16270.994482,-12741.941235
2953.771392,1915.361328,10309.432349,-10438.719238
2953.771639,1082.179150,7838.616235,-9811.438403
2953.771887,560.243188,8010.998755,-11032.481250
2953.772135,-727.837305,8566.453540,-12152.967627
2953.772382,-1819.593262,6718.129858,-14149.731812
2953.772630,-1470.039819,1575.384692,-12919.112158
2953.772877,-603.338818,-3016.694092,-11640.608472
2953.773125,517.147559,-5626.373901,-10692.504614
2953.773372,1580.173096,-6852.205151,-11156.979736
2953.773620,416.591089,-7627.926489,-13737.929126
2953.773867,-1805.228052,-9193.734375,-14379.575171
2953.774115,-220.266553,-11592.724438,-13508.085767
2953.774362,1513.135449,-14422.670801,-12717.999219
2953.774610,1249.773267,-15485.696338,-10625.466968
2953.774857,397.437476,-15840.038184,-11501.744775
2953.775105,-1757.344019,-15768.212134,-13326.126440
2953.775352,-2437.297290,-16515.203052,-13101.071484
2953.775600,-2020.706201,-20839.131250,-14025.233325
2953.775848,-1125.274780,-26446.351538,-10534.487305
2953.776095,-723.048901,-30909.143433,-9375.693701
2953.776343,-1374.271753,-31881.189307,-10108.319409
2953.776590,-1493.981836,-30348.900244,-9514.557397
2953.776838,-1498.770239,-29884.425122,-11286.266626
2953.777085,-1302.445703,-31838.093677,-9744.400757
2953.777333,-1316.810913,-33035.194507,-8250.418921
2953.777580,-2092.532251,-29668.946973,-7278.373047
2953.777828,-3107.673755,-23127.988037,-7422.025146
2953.778075,-4673.481641,-14872.780713,-9883.264453
2953.778323,-5578.489868,-7522.581616,-10453.084448
2953.778570,-4347.870215,-2686.294263,-9739.612354
2953.778818,-3371.035937,282.515796,-7948.749512
2953.779065,-3495.534424,1776.497632,-7024.587671
2953.779313,-3591.302490,-1053.448730,-8058.882788
2953.779560,-2791.639136,-3639.186523,-9227.253198
2953.779808,-1063.025537,-2786.850732,-9174.580762
2953.780056,1019.929907,-430.956299,-7599.196069
2953.780303,1833.958472,6244.077930,-6143.521460
2953.780551,1561.019482,15136.142896,-5204.994409
2953.780798,1608.903516,20120.870752,-6234.501123
2953.781046,2097.320654,21294.029565,-8427.589844
2953.781293,2403.778467,17310.078003,-7527.370020
2953.781541,3280.056274,11994.950317,-7374.141113
2953.781788,4165.910889,12210.428467,-5190.629199
2953.782036,4252.102148,17736.245898,-5003.881470
2953.782283,3634.398120,24803.929199,-7876.923462
2953.782531,2868.253589,30617.050830,-8628.702783
2953.782778,2719.813086,34356.793823,-10481.814868
2953.783026,3552.995264,36487.633301,-9768.342773
2953.783273,4007.893579,36521.152124,-8164.227661
2953.783521,4367.023828,34146.104077,-9002.198242
2953.783768,4539.406348,30482.975537,-9916.783276
2953.784016,3299.209888,25651.476587,-11463.437549
2953.784264,2547.430566,19862.296973,-12674.903589
2953.784511,2370.259644,14245.499878,-11104.307300
2953.784759,1154.005200,10625.466968,-10539.275708
2953.785006,-19.153613,8887.276562,-10668.562598
2953.785254,-569.819995,8030.152368,-11089.942090
2953.785501,-1264.138477,6689.399438,-13426.682910
2953.785749,-1407.790576,4505.887524,-12919.112158
2953.785996,-1125.274780,1130.063184,-12196.063257
2953.786244,-828.393774,-2140.416284,-11075.576880
2953.786491,-177.170923,-5219.359619,-10510.545288
2953.786739,-57.460840,-6880.935571,-12828.132495
2953.786986,-1690.306372,-7718.906152,-14614.206934
2953.787234,-1776.497632,-9169.792358,-13962.984082
2953.787481,277.727393,-9739.612354,-13192.051147
2953.787729,608.127222,-11745.953345,-10989.385620
2953.787977,-134.075293,-14001.291309,-10649.408984
2953.788224,-1551.442676,-16079.458350,-13086.706274
2953.788472,-2183.511914,-17401.057666,-13508.085767
2953.788719,-1891.419312,-20168.754785,-14891.934326
2953.788967,-1398.213770,-24329.877271,-11702.857715
2953.789214,-823.605371,-29448.680420,-9117.119922
2953.789462,-1225.831250,-32431.855688,-9452.308154
2953.789709,-1359.906543,-32111.032666,-9548.076221
2953.789957,-1244.984863,-30573.955200,-11678.915698
2953.790204,-871.489404,-30492.552344,-11372.457886
2953.790452,-727.837305,-31598.673511,-8528.146313
2953.790699,-1302.445703,-30640.992847,-7048.529687
2953.790947,-2442.085693,-25795.128687,-6718.129858
2953.791194,-3643.974927,-18880.674292,-9174.580762
2953.791442,-4807.556934,-11937.489478,-11501.744775
2953.791689,-4845.864160,-6751.648682,-10419.565625
2953.791937,-3552.995264,-4563.348364,-8887.276562
2953.792185,-2882.618799,-3998.316772,-6488.286499
2953.792432,-2753.331909,-5066.130713,-6718.129858
2953.792680,-2767.697119,-4429.273071,-9447.519751
2953.792927,-2389.413257,-1369.483350,-10074.800586
2953.793175,-598.550415,2882.618799,-9002.198242
2953.793422,766.144531,7647.080103,-6598.419775
2953.793670,1446.097803,12028.469141,-4735.730884
2953.793917,2078.167041,15351.621045,-5602.431885
2953.794165,2264.914771,16218.322046,-7805.097412
2953.794412,2901.772412,15284.583398,-8350.975391
2953.794660,3404.554761,13560.758203,-8226.476904
2953.794907,3773.261816,13397.952490,-5363.011719
2953.795155,4314.351392,16476.895825,-4496.310718
2953.795402,4946.420630,21997.924854,-6521.805322
2953.795650,4381.389038,27126.304810,-8571.241943
2953.795898,3979.163159,31478.963428,-10433.930835
2953.796145,3591.302490,35046.323901,-9849.745630
2953.796393,3552.995264,36765.360693,-7920.019092
2953.796640,3572.148877,36061.465405,-7924.807495
2953.796888,3615.244507,32604.238208,-9299.079248
2953.797135,3375.824341,27925.968164,-11516.109985
2953.797383,2815.581152,22706.608545,-12516.886279
2953.797630,2255.337964,18133.683374,-11185.710156
2953.797878,2020.706201,13991.714502,-9988.609326
2953.798125,703.895288,11487.379565,-9476.250171
2953.798373,-641.646045,9916.783276,-11247.959399
2953.798620,-440.533105,7623.138086,-13292.607617
2953.798868,-727.837305,5090.072729,-13599.065430
2953.799115,-502.782349,3045.424512,-12564.770312
2953.799363,-9.576807,646.434448,-10716.446631
2953.799610,-148.440503,-2226.607544,-10635.043774
2953.799858,81.402856,-5746.083984,-11678.915698
2953.800106,-521.935962,-7201.758594,-14149.731812
2953.800353,-2523.488550,-7556.100439,-15174.450122
2953.800601,-1824.381665,-8063.671191,-13077.129468
2953.800848,-210.689746,-8896.853369,-11999.738721
2953.801096,-588.973608,-11903.970654,-10165.780249
2953.801343,-1556.231079,-15203.180542,-11822.567798
2953.801591,-2777.273926,-17424.999683,-14317.325928
2953.801838,-3241.749048,-19278.111768,-14547.169287
2953.802086,-3112.462158,-21940.464014,-14034.810132
2953.802333,-2260.126367,-25105.598608,-9964.667310
2953.802581,-1086.967554,-29745.561426,-8753.201270
2953.802828,-1316.810913,-32316.934009,-9543.287817
2953.803076,-1048.660327,-32144.551489,-11022.904443
2953.803323,-1316.810913,-30511.705957,-12124.237207
2953.803571,-914.585034,-29788.657056,-10453.084448
2953.803818,-660.799658,-30473.398730,-7556.100439
2953.804066,-1575.384692,-29075.184961,-6526.593726
2953.804314,-2676.717456,-24277.204834,-7867.346655
2953.804561,-4343.081812,-17161.637500,-10285.490332
2953.804809,-5425.260962,-10994.174023,-11674.127295
2953.805056,-5032.611890,-5980.715747,-9634.267480
2953.805304,-3524.264844,-4850.652563,-7589.619263
2953.805551,-2557.007373,-7019.799268,-6071.695410
2953.805799,-2873.041992,-7795.520605,-7398.083130
2953.806046,-2782.062329,-4726.154077,-10017.339746
2953.806294,-2059.013428,976.834277,-9753.977563
2953.806541,-4.788403,6689.399438,-8427.589844
2953.806789,1680.729565,11070.788477,-5262.455249
2953.807036,2896.984009,13527.239380,-4424.484668
2953.807284,3232.172241,13718.775513,-6086.060620
2953.807531,3117.250562,12780.248462,-7991.845142
2953.807779,3758.896606,12325.350146,-9169.792358
2953.808027,4156.334082,13541.604590,-7110.778931
2953.808274,4496.310718,16218.322046,-4855.440967
2953.808522,5276.820459,19843.143359,-4769.249707
2953.808769,5468.356592,24238.897607,-6579.266162
2953.809017,4553.771558,29079.973364,-9600.748657
2953.809264,3916.913916,33375.171143,-10754.753857
2953.809512,3615.244507,35817.256836,-10127.473022
2953.809759,3730.166187,36253.001538,-7953.537915
2953.810007,3730.166187,34505.234326,-7738.059766
2953.810254,3907.337109,30315.381421,-9552.864624
2953.810502,3471.592407,25148.694238,-11774.683765
2953.810749,2734.178296,20829.554443,-12627.019556
2953.810997,2264.914771,17578.228589,-11444.283936
2953.811244,1479.616626,14192.827441,-9854.534033
2953.811492,-57.460840,11563.994019,-9782.707983
2953.811739,-847.547388,9222.464795,-11621.454858
2953.811987,-818.816968,6593.631372,-13627.795850
2953.812235,-1221.042847,4481.945508,-13699.621899
2953.812482,-991.199487,2729.389893,-12339.715356
2953.812730,-914.585034,895.431421,-10860.098730
2953.812977,-603.338818,-2451.662500,-10175.357056
2953.813225,4.788403,-6909.665991,-12215.216870
2953.813472,-1149.216797,-7465.120776,-14820.108276
2953.813720,-2547.430566,-6679.822632,-14949.395166
2953.813967,-1383.848560,-6445.190869,-13196.839551
2953.814215,-612.915625,-8489.839087,-11171.344946
2953.814462,-780.509741,-12478.579053,-9849.745630
2953.814710,-1699.883179,-16429.011792,-12464.213843
2953.814957,-2911.349219,-18626.888916,-14101.847778
2953.815205,-3438.073584,-20288.464868,-15093.047266
2953.815452,-3246.537451,-22859.837451,-13172.897534
2953.815700,-2149.993091,-26637.887671,-8791.508496
2953.815948,-1565.807886,-31407.137378,-8499.415894
2953.816195,-1249.773267,-33039.982910,-9198.522778
2953.816443,-1259.350073,-31364.041748,-11640.608472
2953.816690,-1206.677637,-28668.170679,-12085.929980
2953.816938,-679.953271,-28127.081104,-9883.264453
2953.817185,-809.240161,-28854.918408,-7015.010864
2953.817433,-1671.152759,-27858.930518,-5832.275244
2953.817680,-2533.065356,-23463.176270,-8628.702783
2953.817928,-4060.566016,-16438.588599,-11137.826123
2953.818175,-4726.154077,-9854.534033,-11846.509814
2953.818423,-3926.490723,-5999.869360,-9279.925635
2953.818670,-2729.389893,-7158.662964,-6579.266162
2953.818918,-2360.682837,-9878.476050,-5616.797095
2953.819165,-2767.697119,-9069.235889,-8106.766821
2953.819413,-2609.679810,-3117.250562,-10960.655200
2953.819660,-1508.347046,4338.293408,-10170.568652
2953.819908,248.996973,10735.600244,-7948.749512
2953.820156,1335.964526,13838.485596,-4127.603662
2953.820403,2873.041992,13129.801904,-4520.252734
2953.820651,2896.984009,11314.997046,-6770.802295
2953.820898,3337.517114,10620.678564,-9083.601099
2953.821146,3538.630054,12291.831323,-9648.632690
2953.821393,3639.186523,15251.064575,-6090.849023
2953.821641,4194.641309,18095.376147,-4098.873242
2953.821888,4630.386011,21011.513770,-4544.194751
2953.822136,5319.916089,24564.509033,-7699.752539
2953.822383,4347.870215,29463.045630,-10898.405957
2953.822631,3840.299463,33231.519043,-11329.362256
2953.822878,3562.572070,35371.935327,-9059.659082
2953.823126,3495.534424,35462.914990,-6627.150195
2953.823373,3902.548706,33078.290137,-7647.080103
2953.823621,4285.620972,28562.825806,-10726.023438
2953.823868,3730.166187,24186.225171,-12780.248462
2953.824116,3289.633081,20642.806714,-12650.961572
2953.824364,2624.045020,18109.741357,-10113.107813
2953.824611,1455.674609,14604.630127,-8418.013037
2953.824859,4.788403,11439.495532,-9672.574707
2953.825106,-751.779321,8714.894043,-12583.923926
2953.825354,-1091.755957,6445.190869,-14566.322900
2953.825601,-1556.231079,4759.672900,-13728.352319
2953.825849,-1498.770239,2853.888379,-11267.113013
2953.826096,-1187.524023,440.533105,-9749.189160
2953.826344,-981.622681,-3845.087866,-10448.296045
2953.826591,-306.457812,-8494.627490,-13220.781567
2953.826839,-1326.387720,-8111.555225,-16170.438013
2953.827086,-2398.990063,-6387.730029,-14700.398193
2953.827334,-1067.813940,-5870.582471,-11927.912671
2953.827581,-90.979663,-9227.253198,-10285.490332
2953.827829,167.594116,-14044.386938,-9840.168823
2953.828077,-909.796631,-18066.645728,-13848.062402
2953.828324,-2403.778467,-19675.549243,-15116.989282
2953.828572,-2983.175269,-20379.444531,-14963.760376
2953.828819,-2978.386865,-22701.820142,-11880.028638
2953.829067,-1695.094775,-26546.908008,-7479.485986
2953.829314,-1422.155786,-31258.696875,-8848.969336
2953.829562,-1675.941162,-33097.443750,-10242.394702
2953.829807,-2006.340991,-31210.812842,-12540.828296
2953.830052,-2126.051074,-27609.933545,-11971.008301
2953.830298,-1632.845532,-27289.110522,-8456.320264
2953.830543,-1244.984863,-28893.225635,-6521.805322
2953.830788,-1924.938135,-27581.203125,-6033.388184
2953.831034,-2935.291235,-23075.315601,-9284.714038
2953.831279,-4376.600635,-15547.945581,-12133.814014
2953.831524,-5324.704492,-8494.627490,-11137.826123
2953.831770,-4137.180469,-4381.389038,-8451.531860
2953.832015,-2719.813086,-5635.950708,-6129.156250
2953.832260,-1900.996118,-10074.800586,-5612.008691
2953.832506,-2317.587207,-9873.687646,-9212.887988
2953.832751,-2810.792749,-3648.763330,-11022.904443
2953.832996,-1345.541333,4903.325000,-9232.041602
2953.833242,143.652100,12028.469141,-7829.039429
2953.833487,1537.077466,15289.371802,-3246.537451
2953.833732,3007.117285,14824.896680,-5209.782812
2953.833978,2815.581152,12028.469141,-7450.755566
2953.834223,3050.212915,9993.397729,-8576.030347
2953.834468,3169.922998,11271.901416,-9931.148486
2953.834714,3256.114258,14245.499878,-4989.516260
2953.834959,4022.258789,17487.248926,-4343.081812
2953.835204,5272.032056,20815.189233,-5348.646509
2953.835450,5516.240625,24712.949536,-7896.077075
2953.835695,4462.791895,30315.381421,-11415.553516
2953.835940,3969.586353,34648.886426,-10888.829150
2953.836186,4333.505005,36784.514307,-8341.398584
2953.836431,4256.890552,36636.073804,-7182.604980
2953.836676,4793.191724,33207.577026,-7809.885815
2953.836922,4673.481641,28155.811523,-11008.539233
2953.837167,3960.009546,23238.121313,-13306.972827
2953.837412,3505.111230,19709.068066,-11769.895361
2953.837658,2600.103003,17065.869434,-10510.545288
2953.837903,1292.868896,14135.366602,-8710.105640
2953.838148,-114.921680,10577.582935,-9849.745630
2953.838394,-799.663354,7441.178760,-13172.897534
2953.838639,-1029.506714,4817.133740,-14135.366602
2953.838884,-1589.749902,3213.018628,-13565.546606
2953.839130,-1513.135449,1762.132422,-11563.994019
2953.839375,-1015.141504,-517.147559,-9600.748657
2953.839620,-608.127222,-4548.983154,-11133.037720
2953.839866,-426.167896,-8039.729175,-13781.024756
2953.840111,-1944.091748,-6871.358765,-15624.560034
2953.840356,-2978.386865,-5880.159277,-14997.279199
2953.840602,-1695.094775,-6732.495068,-11798.625781
2953.840847,-751.779321,-10635.043774,-10357.316382
2953.841092,-440.533105,-15907.075830,-10419.565625
2953.841338,-1364.694946,-19689.914453,-13263.877197
2953.841583,-2820.369556,-19728.221680,-15054.740039
2953.841828,-3505.111230,-20087.351929,-14647.725757
2953.842074,-3055.001318,-22639.570898,-11070.788477
2953.842319,-1651.999146,-26748.020947,-7963.114722
2953.842564,-1273.715283,-31220.389648,-8585.607153
2953.842810,-1053.448730,-32465.374512,-10146.626636
2953.843055,-1359.906543,-30114.268481,-12411.541406
2953.843300,-1604.115112,-27547.684302,-11075.576880
2953.843546,-1398.213770,-27868.507324,-8643.067993
2953.843791,-1766.920825,-29577.967310,-6253.654736
2953.844036,-2576.160986,-27729.643628,-6325.480786
2953.844282,-3663.128540,-21413.739648,-10199.299072
2953.844527,-4788.403320,-12885.593335,-11597.512842
2953.844772,-5506.663818,-5808.333228,-10812.214697
2953.845018,-3825.934253,-3658.340137,-7982.268335
2953.845263,-2825.157959,-6646.303809,-5746.083984
2953.845508,-2288.856787,-11051.634863,-6785.167505
2953.845754,-2298.433594,-9227.253198,-9662.997900
2953.845999,-2288.856787,-2183.511914,-10936.713184
2953.846244,57.460840,5386.953735,-9198.522778
2953.846490,703.895288,12804.190479,-5755.660791
2953.846735,2403.778467,15600.618018,-3538.630054
2953.846980,3078.943335,14020.444922,-5870.582471
2953.847226,2748.543506,11224.017383,-7584.830859
2953.847471,3198.653418,10304.643945,-9763.554370
2953.847716,3117.250562,11688.492505,-8662.221606
2953.847962,3155.557788,15006.856006,-4400.542651
2953.848207,4185.064502,18420.987573,-4515.464331
2953.848452,4817.133740,22333.113086,-5468.356592
2953.848698,4707.000464,26819.846997,-9504.980591
2953.848943,3849.876270,31809.363257,-11707.646118
2953.849188,3773.261816,35798.103223,-10821.791504
2953.849434,4434.061475,36913.801196,-7991.845142
2953.849679,4726.154077,35438.972974,-6521.805322
2953.849924,4630.386011,31407.137378,-8710.105640
2953.850170,4371.812231,26403.255908,-11592.724438
2953.850415,3576.937280,21729.774268,-13575.123413
2953.850660,3078.943335,18569.428076,-12057.199561
2953.850906,2375.048047,15911.864233,-9203.311182
2953.851151,972.045874,13321.338037,-8710.105640
2953.851396,-521.935962,10409.988818,-10199.299072
2953.851642,-804.451758,7259.219434,-13407.529297
2953.851887,-1307.234106,4817.133740,-14954.183569
2953.852132,-1484.405029,2925.714429,-12770.671655
2953.852378,-699.106885,1235.408057,-10903.194360
2953.852623,-373.495459,-1288.080493,-9777.919580
2953.852868,220.266553,-4869.806177,-10702.081421
2953.853114,-90.979663,-6287.173560,-14906.299536
2953.853359,-2269.703174,-4831.498950,-15902.287427
2953.853604,-2327.164014,-6028.599780,-13651.737866
2953.853850,-713.472095,-9131.485132,-11932.701074
2953.854095,-316.034619,-13661.314673,-9246.406812
2953.854340,-316.034619,-17721.880688,-11171.344946
2953.854586,-1819.593262,-19498.378320,-14413.093994
2953.854831,-3428.496777,-18947.711938,-14590.264917
2953.855076,-3629.609717,-20326.772095,-14939.818359
2953.855322,-2695.871069,-23822.306519,-9179.369165
2953.855567,-1565.807886,-28280.310010,-7699.752539
2953.855812,-1312.022510,-31929.073340,-9643.844287
2953.856058,-775.721338,-31258.696875,-10481.814868
2953.856303,-1316.810913,-27887.660938,-12995.726611
2953.856548,-1225.831250,-26527.754395,-10256.759912
2953.856794,-1034.295117,-28562.825806,-7627.926489
2953.857039,-1771.709229,-29999.346802,-6138.733057
2953.857284,-2317.587207,-26130.316919,-7398.083130
2953.857530,-3543.418457,-18851.943872,-11171.344946
2953.857775,-4745.307690,-10745.177051,-11817.779395
2953.858020,-5248.090039,-4807.556934,-9739.612354
2953.858266,-4113.238452,-4141.968872,-7264.007837
2953.858511,-3313.575098,-8920.795386,-5726.930371
2953.858756,-2906.560815,-12047.622754,-7618.349683
2953.859002,-3385.401147,-9289.502441,-11161.768140
2953.859247,-2528.276953,-1872.265698,-10156.203442
2953.859492,-445.321509,7086.836914,-8374.917407
2953.859738,474.051929,13905.523242,-4750.096094
2953.859983,2015.917798,15710.751294,-3615.244507
2953.860228,3031.059302,14446.612817,-7264.007837
2953.860474,2604.891406,11784.260571,-8346.186987
2953.860719,3634.398120,10295.067139,-9888.052856
2953.860964,3347.093921,12191.274854,-7225.700610
2953.861210,3782.838623,15490.484741,-3591.302490
2953.861455,4740.519287,19541.473950,-4754.884497
2953.861700,5401.318945,23769.634082,-6636.727002
2953.861946,4400.542651,28323.405640,-10462.661255
2953.862191,3366.247534,33102.232153,-11281.478223
2953.862436,3481.169214,36406.230444,-9471.461768
2953.862682,3936.067529,36813.244727,-7560.888843
2953.862927,4424.484668,34083.854834,-7177.816577
2953.863172,4448.426685,29467.834033,-9849.745630
2953.863418,3964.797949,24856.601636,-12622.231152
2953.863663,3031.059302,21102.493433,-12770.671655
2953.863908,2743.755103,18128.894971,-11070.788477
2953.864154,2513.911743,15188.815332,-9227.253198
2953.864399,1359.906543,12550.405103,-9002.198242
2953.864644,234.631763,9557.653027,-11659.762085
2953.864890,-186.747729,6062.118604,-13603.853833
2953.865135,-909.796631,3916.913916,-13862.427612
2953.865380,-967.257471,2973.598462,-12263.100903
2953.865626,-263.362183,1575.384692,-10156.203442
2953.865871,124.498486,-1216.254443,-10362.104785
2953.866116,723.048901,-4328.716602,-11999.738721
2953.866362,-474.051929,-4496.310718,-15069.105249
2953.866607,-3347.093921,-4893.748193,-15409.081885
2953.866852,-2614.468213,-8590.395557,-12813.767285
2953.867098,-847.547388,-12660.538379,-12258.312500
2953.867343,-220.266553,-16740.258008,-9725.247144
2953.867588,-641.646045,-19378.668237,-12334.926953
2953.867834,-2494.758130,-18612.523706,-14369.998364
2953.868079,-3773.261816,-17492.037329,-13886.369629
2953.868324,-3634.398120,-19522.320337,-13895.946436
2953.868570,-2336.740820,-23635.558789,-8777.143286
2953.868815,-1422.155786,-29079.973364,-9059.659082
2953.869060,-713.472095,-32091.879053,-9907.206470
2953.869306,-474.051929,-30540.436377,-10510.545288
2953.869551,-1029.506714,-27207.707666,-11817.779395
2953.869796,-1101.332764,-27212.496069,-9227.253198
2953.870042,-1086.967554,-30047.230835,-7699.752539
2953.870287,-1819.593262,-29961.039575,-6718.129858
2953.870532,-2518.700146,-24645.911890,-8844.180933
2953.870778,-3701.435767,-15844.826587,-10726.023438
2953.871023,-5123.591553,-7694.964136,-10529.698901
2953.871268,-4438.849878,-3581.725684,-8834.604126
2953.871514,-3916.913916,-4505.887524,-6914.454395
2953.871759,-3222.595435,-9720.458740,-6976.703638
2953.872004,-3232.172241,-12531.251489,-8437.166650
2953.872250,-3351.882324,-9533.711011,-10716.446631
2953.872495,-2015.917798,-928.950244,-9021.351855
2953.872740,-76.614453,8298.302954,-6933.608008
2953.872986,1053.448730,14848.838696,-4271.255762
2953.873231,2164.358301,15504.849951,-4927.267017
2953.873476,2456.450903,13316.549634,-7536.946826
2953.873722,2863.465186,11286.266626,-8226.476904
2953.873967,3787.627026,10783.484277,-9165.003955
2953.874212,3797.203833,12540.828296,-5612.008691
2953.874458,4232.948535,16151.284399,-4434.061475
2953.874703,4994.304663,21188.684692,-5281.608862
2953.874948,5123.591553,26087.221289,-7781.155396
2953.875194,3787.627026,30846.894189,-10740.388647
2953.875439,3117.250562,34548.329956,-10836.156714
2953.875684,3366.247534,36549.882544,-9332.598071
2953.875929,4031.835596,35798.103223,-7618.349683
2953.876175,3974.374756,32719.159888,-8398.859424
2953.876420,4065.354419,27720.066821,-10529.698901
2953.876665,3476.380811,23185.448877,-12492.944263
2953.876911,2595.314600,20029.891089,-12339.715356
2953.877156,2585.737793,17348.385229,-10505.756885
2953.877401,2193.088721,14556.746094,-9634.267480
2953.877647,761.356128,12071.564771,-9720.458740
2953.877892,-119.710083,9016.563452,-12124.237207
2953.878137,-560.243188,5463.568188,-13670.891479
2953.878383,-1034.295117,2987.963672,-13177.685938
2953.878628,-770.932935,1920.149731,-12061.987964
2953.878873,-258.573779,497.993945,-10472.238062
2953.879119,119.710083,-1728.613599,-10984.597217
2953.879364,430.956299,-3414.131567,-12650.961572
2953.879609,-1273.715283,-3677.493750,-14829.685083
2953.879855,-3462.015601,-6186.617090,-14686.032983
2953.880100,-1671.152759,-10510.545288,-12344.503760
2953.880345,-110.133276,-14853.627100,-11808.202588
2953.880591,52.672437,-17927.782031,-10084.377393
2953.880836,-976.834277,-19167.978491,-12957.419385
2953.881081,-2638.410229,-17492.037329,-13934.253662
2953.881327,-3351.882324,-16749.834814,-13795.389966
2953.881572,-2834.734766,-19345.149414,-12387.599390
2953.881817,-1685.517969,-24401.703320,-8686.163623
2953.882063,-1426.944189,-29740.773022,-9562.441431
2953.882308,-809.240161,-31086.314355,-9615.113867
2953.882553,-632.069238,-29032.089331,-11180.921753
2953.882799,-1177.947217,-27193.342456,-10955.866797
2953.883044,-976.834277,-28711.266309,-8844.180933
2953.883289,-1441.309399,-31019.276709,-7374.141113
2953.883535,-2231.395947,-29491.776050,-6861.781958
2953.883780,-2892.195605,-22476.765186,-9715.670337
2953.884025,-4022.258789,-13469.778540,-10730.811841
2953.884271,-4826.710547,-6684.611035,-10467.449658
2953.884516,-4055.777612,-3145.980981,-8259.995728
2953.884761,-3643.974927,-4137.180469,-6636.727002
2953.885007,-3002.328882,-9686.939917,-7608.772876
2953.885252,-2983.175269,-12349.292163,-9074.024292
2953.885497,-2614.468213,-9064.447485,-11008.539233
2953.885743,-809.240161,-1206.677637,-8508.992700
2953.885988,847.547388,8101.978418,-6272.808350
2953.886233,1666.364355,15600.618018,-4434.061475
2953.886479,2082.955444,18320.431104,-5382.165332
2953.886724,2097.320654,16472.107422,-8422.801440
2953.886969,2466.027710,13781.024756,-8638.279590
2953.887215,2978.386865,11042.058057,-8762.778076
2953.887460,3155.557788,11224.017383,-5468.356592
2953.887705,3380.612744,14834.473486,-4156.334082
2953.887951,4189.852905,20187.908398,-6124.367847
2953.888196,3672.705347,25890.896753,-8623.914380
2953.888441,2681.505859,31162.928809,-11022.904443
2953.888687,2873.041992,34586.637183,-10635.043774
2953.888932,3605.667700,36291.308765,-8623.914380
2953.889177,4735.730884,35635.297510,-7460.332373
2953.889423,5214.571216,32211.589136,-8614.337573
2953.889668,4802.768530,27648.240771,-10769.119067
2953.889913,4108.450049,23333.889380,-12698.845605
2953.890159,3548.206860,19977.218652,-11908.759058
2953.890404,3371.035937,16888.698511,-10218.452686
2953.890649,2676.717456,13886.369629,-9308.656055
2953.890895,837.970581,11463.437549,-9830.592017
2953.891140,-430.956299,8523.357910,-12310.984937
2953.891385,-1393.425366,5181.052393,-13575.123413
2953.891631,-2116.474268,2978.386865,-12990.938208
2953.891876,-1580.173096,1316.810913,-11621.454858
2953.892121,-866.701001,-430.956299,-10673.351001
2953.892367,-426.167896,-2676.717456,-11113.884106
2953.892612,71.826050,-4137.180469,-12995.726611
2953.892857,-1958.456958,-4865.017773,-15351.621045
2953.893103,-3332.728711,-7599.196069,-14159.308618
2953.893348,-584.185205,-11779.472168,-12301.408130
2953.893593,646.434448,-15811.307764,-11257.536206
2953.893839,560.243188,-18176.779004,-10127.473022
2953.894084,-818.816968,-18191.144214,-13359.645264
2953.894329,-2585.737793,-16711.527588,-13570.335010
2953.894575,-3126.827368,-17372.327246,-14082.694165
2953.894820,-2643.198633,-20891.803687,-11918.335864
2953.895065,-1695.094775,-25775.975073,-8777.143286
2953.895311,-1359.906543,-30142.998901,-9806.650000
2953.895556,-952.892261,-30454.245117,-9662.997900
2953.895801,-1340.752930,-27653.029175,-11382.034692
2953.896047,-1747.767212,-26652.252881,-10788.272681
2953.896292,-1359.906543,-29429.526807,-8599.972363
2953.896537,-1872.265698,-31526.847461,-7589.619263
2953.896783,-2207.453931,-28242.002783,-7407.659937
2953.897028,-2968.810059,-20001.160669,-9849.745630
2953.897273,-4299.986182,-11396.399902,-10864.887134
2953.897519,-4606.443994,-5564.124658,-9892.841260
2953.897764,-3926.490723,-2001.552588,-8231.265308
2953.898009,-3169.922998,-4151.545679,-6876.147168
2953.898255,-2604.891406,-10098.742603,-7493.851196
2953.898500,-2729.389893,-12191.274854,-9457.096558
2953.898745,-2044.648218,-8154.650854,-9950.302100
2953.898991,-416.591089,-124.498486,-7513.004810
2953.899236,919.373437,8916.006982,-6392.518433
2953.899481,1163.582007,15964.536670,-4137.180469
2953.899727,2106.897461,18804.059839,-6593.631372
2953.899972,2121.262671,17185.579517,-7982.268335
2953.900217,2154.781494,13383.587280,-8255.207324
2953.900463,3040.636108,10357.316382,-8547.299927
2953.900708,3088.520142,10970.232007,-4630.386011
2953.900953,3615.244507,15289.371802,-5339.069702
2953.901199,4716.577271,20930.110913,-6847.416748
2953.901444,3983.951562,26618.734058,-8571.241943
2953.901689,3275.267871,32288.203589,-10979.808813
2953.901935,3495.534424,36305.673975,-9562.441431
2953.902180,4252.102148,37809.232617,-8777.143286
2953.902425,5042.188696,36205.117505,-8355.763794
2953.902671,5118.803149,31933.861743,-8848.969336
2953.902916,4496.310718,27092.785986,-11731.588135
2953.903161,3591.302490,22108.058130,-11851.298218
2953.903407,2983.175269,18128.894971,-11180.921753
2953.903652,2509.123340,15174.450122,-10773.907471
2953.903897,1589.749902,12382.810986,-9227.253198
2953.904143,-38.307227,9787.496387,-11405.976709
2953.904388,-881.066211,7010.222461,-12603.077539
2953.904633,-1628.057129,4707.000464,-12909.535352
2953.904879,-1968.033765,2863.465186,-13244.723584
2953.905124,-1312.022510,1063.025537,-11247.959399
2953.905369,-550.666382,-1182.735620,-11449.072339
2953.905615,181.959326,-3126.827368,-11836.933008
2953.905860,-90.979663,-4659.116431,-13038.822241
2953.906105,-2801.215942,-5889.736084,-15404.293481
2953.906351,-2360.682837,-9064.447485,-13110.648291
2953.906596,43.095630,-13072.341064,-12837.709302
2953.906841,541.089575,-16304.513306,-11109.095703
2953.907087,119.710083,-17673.996655,-10888.829150
2953.907332,-1465.251416,-16788.142041,-13718.775513
2953.907577,-2892.195605,-15911.864233,-12818.555688
2953.907823,-3107.673755,-18162.413794,-14044.386938
2953.908068,-2202.665527,-22246.921826,-10869.675537
2953.908313,-1575.384692,-27255.591699,-9184.157568
2953.908559,-1187.524023,-30238.766968,-9916.783276
2953.908804,-699.106885,-29290.663110,-9610.325464
2953.909049,-948.103857,-27653.029175,-10970.232007
2953.909295,-981.622681,-28237.214380,-10079.588989
2953.909540,-933.738647,-31052.795532,-8408.436230
2953.909785,-1546.654272,-31359.253345,-7374.141113
2953.910031,-2331.952417,-26307.487842,-8298.302954
2953.910276,-3107.673755,-17008.408594,-9739.612354
2953.910521,-3969.586353,-8370.129004,-10280.701929
2953.910767,-4299.986182,-2949.656445,-9634.267480
2953.911012,-3404.554761,-2173.935107,-7589.619263
2953.911257,-3404.554761,-5616.797095,-7402.871533
2953.911503,-2949.656445,-10840.945117,-8130.708838
2953.911748,-2628.833423,-11382.034692,-9806.650000
2953.911993,-2039.859814,-6387.730029,-9409.212524
2953.912239,-335.188232,1833.958472,-7173.028174
2953.912484,440.533105,9940.725293,-5635.950708
2953.912729,919.373437,15935.806250,-5185.840796
2953.912975,1833.958472,17444.153296,-7264.007837
2953.913220,1953.668555,16227.898853,-8116.343628
2953.913465,2892.195605,12904.746948,-8767.566479
2953.913711,3016.694092,10802.637891,-6746.860278
2953.913956,3394.977954,12239.158887,-4994.304663
2953.914201,4237.736938,17089.811450,-5736.507178
2953.914447,4692.635254,22936.451904,-7426.813550
2953.914692,3912.125513,28802.245972,-10084.377393
2953.914937,3284.844678,33839.646265,-10031.704956
2953.915183,3409.343164,37454.890771,-9476.250171
2953.915428,3979.163159,37617.696484,-8475.473877
2953.915673,4314.351392,34438.196680,-8350.975391
2953.915919,4089.296436,29846.117896,-10524.910498
2953.916164,3629.609717,25258.827515,-11836.933008
2953.916409,3098.096948,20590.134277,-11611.878052
2953.916655,2566.584180,17013.196997,-11022.904443
2953.916900,2394.201660,13924.676855,-9629.479077
2953.917145,1043.871924,11726.799731,-10079.588989
2953.917391,-550.666382,9399.635718,-11817.779395
2953.917636,-804.451758,6612.784985,-12794.613672
2953.917881,-1235.408057,4352.658618,-13067.552661
2953.918127,-1115.697974,2408.566870,-11870.451831
2953.918372,-316.034619,383.072266,-11003.750830
2953.918617,-100.556470,-1604.115112,-11468.225952
2953.918863,119.710083,-3409.343164,-12133.814014
2953.919108,-1091.755957,-4932.055420,-14618.995337
2953.919353,-3280.056274,-7647.080103,-14599.841724
2953.919599,-1431.732593,-11262.324609,-12354.080566
2953.919844,287.304199,-14341.267944,-12497.732666
2953.920089,186.747729,-15935.806250,-10113.107813
2953.920335,-780.509741,-16371.550952,-12588.712329
2953.920580,-2336.740820,-15634.136841,-13761.871143
2953.920825,-2935.291235,-16256.629272,-13168.109131
2953.921071,-2480.392920,-19680.337646,-13326.126440
2953.921316,-1412.578979,-24191.013574,-9490.615381
2953.921561,-885.854614,-28371.289673,-9404.424121
2953.921807,-641.646045,-29486.987646,-9883.264453
2953.922052,-780.509741,-28328.194043,-10323.797559
2953.922297,-986.411084,-27988.217407,-10831.368311
2953.922543,-809.240161,-30162.152515,-9404.424121
2953.922788,-952.892261,-32000.899390,-7718.906152
2953.923033,-1714.248389,-29750.349829,-7532.158423
2953.923279,-2384.624854,-22582.110059,-8868.122949
2953.923524,-3912.125513,-13723.563916,-10146.626636
2953.923769,-4443.638281,-6976.703638,-10457.872852
2953.924015,-4271.255762,-2901.772412,-8848.969336
2953.924260,-3500.322827,-2652.775439,-7915.230688
2953.924505,-3318.363501,-6703.764648,-7666.233716
2953.924751,-2782.062329,-11022.904443,-8614.337573
2953.924996,-2844.311572,-9993.397729,-10093.954199
2953.925241,-1359.906543,-4601.655591,-8169.016064
2953.925487,325.611426,3485.957617,-6962.338428
2953.925732,708.683691,11233.594189,-5506.663818
2953.925977,1508.347046,15495.273145,-5300.762476
2953.926223,1929.726538,16242.264062,-8140.285645
2953.926468,2312.798804,14939.818359,-7513.004810
2953.926713,3423.708374,12224.793677,-8087.613208
2953.926959,3236.960645,11947.066284,-6387.730029
2953.927204,3600.879297,14810.531470,-4400.542651
2953.927449,4496.310718,19919.757812,-6876.147168
2953.927695,4654.328027,25191.789868,-7623.138086
2953.927940,3816.357446,30032.865625,-9782.707983
2953.928185,3366.247534,34323.275000,-10658.985791
2953.928431,3667.916943,37143.644556,-8398.859424
2953.928676,4031.835596,36909.012793,-8676.586816
2953.928921,3998.316772,33169.269800,-9074.024292
2953.929167,3711.012573,27834.988501,-10371.681592
2953.929412,3165.134595,23386.561816,-12344.503760
2953.929657,2676.717456,19517.531934,-10994.174023
2953.929905,2571.372583,16012.420703,-10687.716211
2953.930153,1972.822168,13263.877197,-10122.684619
2953.930401,339.976636,11348.515869,-10089.165796
2953.930649,-713.472095,9270.348828,-12756.306445
2953.930897,-809.240161,6354.211206,-12919.112158
2953.931145,-804.451758,3950.432739,-12703.634009
2953.931393,-407.014282,2035.071411,-12258.312500
2953.931641,124.498486,148.440503,-10500.968481
2953.931889,205.901343,-2063.801831,-11348.515869
2953.932136,-138.863696,-4649.539624,-12627.019556
2953.932384,-2073.378638,-6402.095239,-14571.111304
2953.932632,-2839.523169,-9279.925635,-14499.285254
2953.932880,-493.205542,-12679.691992,-12291.831323
2953.933128,177.170923,-14824.896680,-11774.683765
2953.933376,-450.109912,-15571.887598,-10529.698901
2953.933624,-1781.286035,-15514.426758,-13034.033838
2953.933872,-2973.598462,-15188.815332,-13895.946436
2953.934120,-3351.882324,-17424.999683,-14092.270972
2953.934368,-2475.604517,-21298.817969,-12138.602417
2953.934616,-1316.810913,-25335.441968,-9198.522778
2953.934864,-952.892261,-28696.901099,-9208.099585
2953.935111,-627.280835,-29161.376221,-9835.380420
2953.935359,-967.257471,-28500.576562,-10888.829150
2953.935607,-809.240161,-28821.399585,-10534.487305
2953.935855,-363.918652,-31143.775195,-9246.406812
2953.936103,-775.721338,-31613.038721,-6933.608008
2953.936351,-1584.961499,-27700.913208,-7513.004810
2953.936599,-2422.932080,-19574.992773,-9222.464795
2953.936847,-4103.661646,-11386.823096,-10242.394702
2953.937095,-4525.041138,-5841.852051,-10582.371338
2953.937343,-4151.545679,-3236.960645,-8188.169678
2953.937591,-3490.746021,-3222.595435,-7675.810522
2953.937839,-3313.575098,-7417.236743,-7441.178760
2953.938086,-2983.175269,-10457.872852,-8781.931689
2953.938334,-2652.775439,-8279.149341,-9888.052856
2953.938582,-1110.909570,-2533.065356,-7910.442285
2953.938830,196.324536,4577.713574,-6560.112549
2953.939078,1034.295117,11832.144604,-5209.782812
2953.939326,1781.286035,15653.290454,-5635.950708
2953.939574,2427.720483,16026.785913,-8078.036401
2953.939822,2997.540479,14494.496851,-7656.656909
2953.940070,3141.192578,12411.541406,-7757.213379
2953.940318,3457.227197,12957.419385,-6157.886670
2953.940566,3960.009546,16668.431958,-4821.922144
2953.940814,4477.157104,22165.518970,-7220.912207
2953.941061,4668.693237,27020.959937,-8288.726147
2953.941309,3284.844678,31431.079395,-9691.728320
2953.941557,2954.444849,34931.402222,-10295.067139
2953.941805,3490.746021,36415.807251,-8298.302954
2953.942053,3524.264844,35659.239526,-8599.972363
2953.942301,3763.685010,31804.574854,-9605.537061
2953.942549,3423.708374,26882.096240,-10716.446631
2953.942797,2935.291235,22371.420312,-12425.906616
2953.943045,2786.850732,18315.642700,-11070.788477
2953.943293,2858.676782,15155.296509,-10098.742603
2953.943541,1661.575952,12732.364429,-10309.432349
2953.943789,-172.382520,10869.675537,-10553.640918
2953.944037,-948.103857,8901.641772,-12746.729639
2953.944284,-881.066211,5980.715747,-13335.703247
2953.944532,-924.161841,3447.650391,-12105.083594
2953.944780,-244.208569,1436.520996,-11894.393848
2953.945028,196.324536,-421.379492,-10654.197388
2953.945276,-67.037646,-2916.137622,-11429.918726
2953.945524,-837.970581,-5410.895752,-13675.679883
2953.945772,-2777.273926,-7589.619263,-14753.070630
2953.946020,-2111.685864,-10663.774194,-13694.833496
2953.946268,565.031592,-13584.700220,-12646.173169
2953.946516,598.550415,-14954.183569,-10419.565625
2953.946764,-517.147559,-15251.064575,-11133.037720
2953.947012,-2020.706201,-15164.873315,-13393.164087
2953.947259,-2834.734766,-15634.136841,-13192.051147
2953.947507,-2652.775439,-18497.602026,-14724.340210
2953.947755,-1719.036792,-22352.266699,-10558.429321
2953.948003,-938.527051,-26336.218262,-9174.580762
2953.948251,-828.393774,-28649.017065,-9251.195215
2953.948499,-952.892261,-28620.286646,-9504.980591
2953.948747,-1307.234106,-28716.054712,-11765.106958
2953.948995,-1106.121167,-30253.132178,-10347.739575
2953.949243,-627.280835,-32369.606445,-8623.914380
2953.949491,-1034.295117,-31292.215698,-7105.990527
2953.949739,-1757.344019,-26024.972046,-7340.622290
2953.949987,-2853.888379,-17209.521533,-9643.844287
2953.950234,-4218.583325,-9979.032520,-10821.791504
2953.950482,-4295.197778,-4951.209033,-10237.606299
2953.950730,-3945.644336,-2082.955444,-8322.244971
2953.950978,-3246.537451,-2892.195605,-7264.007837
2953.951226,-2930.502832,-6938.396411,-7819.462622
2953.951474,-2561.795776,-9955.090503,-9351.751685
2953.951722,-1053.448730,-8394.071021,-9639.055884
2953.951970,-134.075293,-2226.607544,-7671.022119
2953.952218,1216.254443,5631.162305,-5999.869360
2953.952466,1163.582007,14398.728784,-5291.185669
2953.952714,1580.173096,19426.552271,-5884.947681
2953.952962,2346.317627,18947.711938,-8231.265308
2953.953209,2106.897461,15246.276172,-7967.903125
2953.953457,2734.178296,11094.730493,-7311.891870
2953.953705,2561.795776,10793.061084,-5736.507178
2953.953953,2537.853760,15691.597681,-4769.249707
2953.954201,3591.302490,21964.406030,-7757.213379
2953.954449,3189.076611,27207.707666,-8968.679419
2953.954697,2537.853760,31929.073340,-10026.916553
2953.954945,3552.995264,35170.822388,-10055.646973
2953.955193,4280.832568,36602.554980,-7800.309009
2953.955441,4539.406348,35664.027930,-8939.948999
2953.955689,4754.884497,31938.650146,-9710.881934
2953.955937,4510.675928,27356.148169,-11482.591162
2953.956184,3873.818286,22802.376611,-12387.599390
2953.956432,3643.974927,18152.836987,-10496.180078
2953.956680,3160.346191,14518.438867,-10242.394702
2953.956928,1407.790576,11817.779395,-9926.360083
2953.957176,-670.376465,9873.687646,-11195.286963
2953.957424,-1685.517969,7474.697583,-13254.300391
2953.957672,-2298.433594,4491.522314,-13014.880225
2953.957920,-2197.877124,2169.146704,-12617.442749
2953.958168,-1359.906543,555.454785,-11563.994019
2953.958416,-799.663354,-1254.561670,-10740.388647
2953.958664,-555.454785,-3960.009546,-12220.005273
2953.958912,-1034.295117,-6684.611035,-13843.273999
2953.959160,-2839.523169,-8552.088330,-14920.664746
2953.959407,-1326.387720,-11257.536206,-13488.932153
2953.959655,1264.138477,-13804.966772,-12124.237207
2953.959903,1163.582007,-15011.644409,-10295.067139
2953.960151,225.054956,-15514.426758,-11444.283936
2953.960399,-1431.732593,-15365.986255,-13560.758203
2953.960647,-2456.450903,-16079.458350,-13699.621899
2953.960895,-2513.911743,-19321.207397,-14188.039038
2953.961143,-1766.920825,-23453.599463,-10338.162769
2953.961391,-1154.005200,-27696.124805,-9093.177905
2953.961639,-1340.752930,-29563.602100,-9313.444458
2953.961887,-1273.715283,-29228.413867,-10122.684619
2953.962135,-1680.729565,-28553.248999,-11487.379565
2953.962382,-1268.926880,-29525.294873,-10251.971509
2953.962630,-881.066211,-31493.328638,-8288.726147
2953.962878,-1355.118140,-30301.016211,-6952.761621
2953.963126,-2135.627881,-23520.637109,-8130.708838
2953.963374,-3093.308545,-15308.525415,-9519.345801
2953.963622,-4515.464331,-7939.172705,-11080.365283
2953.963870,-4285.620972,-3366.247534,-9773.131177
2953.964118,-3514.688037,-1594.538306,-7814.674219
2953.964366,-3174.711401,-4831.498950,-7354.987500
2953.964614,-2389.413257,-9868.899243,-7287.949854
2953.964862,-2489.969727,-10405.200415,-9624.690674
2953.965110,-1091.755957,-5458.779785,-9275.137231
2953.965357,33.518823,1877.054102,-7259.219434
2953.965605,713.472095,9653.421094,-6210.559106
2953.965853,1273.715283,15638.925244,-4874.594580
2953.966101,2279.279980,16429.011792,-6665.457422
2953.966349,2336.740820,14848.838696,-7819.462622
2953.966597,3011.905688,12200.851660,-8197.746484
2953.966845,3031.059302,11319.785449,-6933.608008
2953.967093,2671.929053,14360.421558,-5712.565161
2953.967341,3778.050220,19579.781177,-5257.666846
2953.967589,4209.006519,24588.451050,-7814.674219
2953.967837,3643.974927,29448.680420,-9370.905298
2953.968085,3361.459131,33518.823242,-9902.418066
2953.968332,3605.667700,36645.650610,-10256.759912
2953.968580,4065.354419,36832.398340,-7872.135059
2953.968828,4299.986182,34375.947437,-8992.621436
2953.969076,4180.276099,30099.903271,-10467.449658
2953.969324,3878.606689,24899.697266,-11353.304272
2953.969572,3327.940308,20116.082349,-12220.005273
2953.969820,3165.134595,16333.243726,-10635.043774
2953.970068,2379.836450,13192.051147,-9782.707983
2953.970316,421.379492,10931.924780,-10280.701929
2953.970564,-837.970581,8681.375220,-11444.283936
2953.970812,-1192.312427,6210.559106,-13297.396021
2953.971060,-1561.019482,4127.603662,-13105.859888
2953.971307,-1125.274780,2317.587207,-11990.161914
2953.971555,-627.280835,368.707056,-11214.440576
2953.971803,-474.051929,-1929.726538,-10903.194360
2953.972051,-565.031592,-4932.055420,-12248.735693
2953.972299,-2327.164014,-7091.625317,-15169.661719
2953.972547,-3016.694092,-9346.963281,-14518.438867
2953.972795,-598.550415,-11793.837378,-12966.996191
2953.973043,531.512769,-13819.331982,-11913.547461
2953.973291,167.594116,-14556.746094,-9672.574707
2953.973539,-828.393774,-15246.276172,-12818.555688
2953.973787,-2063.801831,-15380.351465,-13800.178369
2953.974035,-2504.334937,-17348.385229,-14183.250635
2953.974283,-1972.822168,-20867.861670,-12880.804932
2953.974530,-976.834277,-24741.679956,-8992.621436
2953.974778,-823.605371,-28304.252026,-8916.006982
2953.975026,-842.758984,-29123.068994,-9447.519751
2953.975274,-1192.312427,-28802.245972,-10907.982764
2953.975522,-1350.329736,-29386.431177,-11324.573853
2953.975770,-1139.639990,-31416.714185,-9437.942944
2953.976018,-1498.770239,-32024.841406,-6995.857251
2953.976266,-2059.013428,-28256.367993,-7072.471704
2953.976514,-2801.215942,-20465.635791,-8676.586816
2953.976762,-4027.047192,-12028.469141,-10534.487305
2953.977010,-4764.461304,-6028.599780,-10936.713184
2953.977258,-4089.296436,-2398.990063,-8906.430176
2953.977505,-3744.531396,-1431.732593,-7613.561279
2953.977753,-2806.004346,-5094.861133,-7249.642627
2953.978001,-2197.877124,-9945.513696,-8494.627490
2953.978249,-1412.578979,-10127.473022,-9940.725293
2953.978497,-244.208569,-5056.553906,-8283.937744
2953.978745,804.451758,2264.914771,-6392.518433
2953.978993,1115.697974,11832.144604,-5439.626172
2953.979241,1168.370410,18124.106567,-5391.742139
2953.979489,2126.051074,18550.274463,-7977.479932
2953.979737,2173.935107,15313.313818,-8494.627490
2953.979985,2743.755103,10855.310327,-7369.352710
2953.980233,2710.236279,9782.707983,-6449.979272
2953.980480,2456.450903,13991.714502,-4745.307690
2953.980728,3098.096948,21116.858643,-6521.805322
2953.980976,3744.531396,26882.096240,-9279.925635
2953.981224,3251.325854,31239.543262,-9232.041602
2953.981472,3457.227197,34495.657520,-10328.585962
2953.981720,4189.852905,36822.821533,-8532.934717
2953.981968,4544.194751,36674.381030,-8121.132031
2953.982216,4826.710547,33490.092822,-9911.994873
2953.982464,4592.078784,28299.463623,-10788.272681
2953.982712,3950.432739,23075.315601,-11994.950317
2953.982960,3308.786694,18358.738330,-11214.440576
2953.983208,3256.114258,14930.241553,-10050.858569
2953.983455,1987.187378,12761.094849,-9959.878906
2953.983703,-119.710083,11252.747803,-10730.811841
2953.983951,-1130.063184,8896.853369,-12512.097876
2953.984199,-1838.746875,5544.971045,-13302.184424
2953.984447,-1886.630908,2681.505859,-12473.790649
2953.984695,-1163.582007,603.338818,-11674.127295
2953.984943,-426.167896,-861.912598,-10778.695874
2953.985191,-205.901343,-3026.270898,-11501.744775
2953.985439,-593.762012,-5463.568188,-13139.378711
2953.985687,-2418.143677,-7105.990527,-14815.319873
2953.985935,-2389.413257,-9418.789331,-13800.178369
2953.986183,33.518823,-11956.643091,-12646.173169
2953.986430,818.816968,-13757.082739,-11353.304272
2953.986678,445.321509,-15140.931299,-10726.023438
2953.986926,-1072.602344,-16136.919189,-13096.283081
2953.987174,-2197.877124,-16558.298682,-13024.457031
2953.987422,-2513.911743,-18966.865552,-14211.981055
2953.987670,-1728.613599,-22400.150732,-11473.014355
2953.987918,-1048.660327,-26173.412549,-9303.867651
2953.988166,-1278.503687,-28917.167651,-9548.076221
2953.988414,-1211.466040,-29108.703784,-9576.806641
2953.988662,-1273.715283,-28562.825806,-11262.324609
2953.988910,-1101.332764,-28941.109668,-10433.930835
2953.989158,-914.585034,-30765.491333,-9217.676392
2953.989405,-1259.350073,-30708.030493,-7168.239771
2953.989653,-2312.798804,-26092.009692,-7493.851196
2953.989901,-3040.636108,-17918.205225,-9514.557397
2953.990149,-4362.235425,-10050.858569,-10529.698901
2953.990397,-4654.328027,-4625.597607,-10405.200415
2953.990645,-3730.166187,-1829.170068,-8566.453540
2953.990893,-3596.090894,-2949.656445,-7259.219434
2953.991141,-3064.578125,-7852.981445,-7527.370020
2953.991389,-2968.810059,-10477.026465,-9078.812695
2953.991637,-1915.361328,-8365.340601,-9442.731348
2953.991885,-292.092603,-1982.398975,-8116.343628
2953.992133,526.724365,6569.689355,-6406.883643
2953.992381,943.315454,14025.233325,-5147.533569
2953.992628,1757.344019,16816.872461,-6181.828687
2953.992876,2485.181323,15188.815332,-7268.796240
2953.993124,3107.673755,12622.231152,-8336.610181
2953.993372,3739.742993,10941.501587,-7484.274390
2953.993620,3658.340137,12670.115186,-5616.797095
2953.993868,3572.148877,18310.854297,-5286.397266
2953.994116,4395.754248,24387.338110,-6598.419775
2953.994364,3873.818286,29635.428149,-9188.945972
2953.994612,3375.824341,33293.768286,-9969.455713
2953.994860,3246.537451,35898.659692,-10012.551343
2953.995108,3476.380811,36693.534644,-8829.815723
2953.995356,3399.766357,34988.863062,-8164.227661
2953.995603,3418.919971,30449.456714,-9883.264453
2953.995851,3270.479468,25407.268018,-11209.652173
2953.996099,2786.850732,20441.693774,-11947.066284
2953.996347,2839.523169,16237.475659,-11640.608472
2953.996595,2662.352246,13555.969800,-10132.261426
2953.996843,1412.578979,12100.295190,-9878.476050
2953.997091,43.095630,10553.640918,-11449.072339
2953.997339,-138.863696,8140.285645,-12454.637036
2953.997587,-354.341846,5157.110376,-13469.778540
2953.997835,-239.420166,2657.563843,-12569.558716
2953.998083,306.457812,636.857642,-10989.385620
2953.998331,287.304199,-1498.770239,-11147.402930
2953.998578,186.747729,-3768.473413,-11410.765112
2953.998826,-1106.121167,-5166.687183,-14245.499878
2953.999074,-3045.424512,-7086.836914,-15107.412476
2953.999322,-1886.630908,-10232.817896,-13062.764258
2953.999570,-598.550415,-13431.471313,-12938.265771
2953.999818,-708.683691,-15026.009619,-9782.707983
2954.000066,-1149.216797,-16194.380029,-12095.506787
2954.000314,-2384.624854,-16515.203052,-13757.082739
2954.000562,-2863.465186,-17453.730103,-13579.911816
2954.000810,-2466.027710,-20250.157642,-13895.946436
2954.001058,-1067.813940,-23439.234253,-9208.099585
2954.001306,-593.762012,-26872.519434,-8992.621436
2954.001553,-311.246216,-28596.344629,-9289.502441
2954.001801,-225.054956,-28400.020093,-10577.582935
2954.002049,-354.341846,-28060.043457,-11396.399902
2954.002297,-158.017310,-29640.216553,-9777.919580
2954.002545,-612.915625,-31689.653174,-7656.656909
2954.002793,-1766.920825,-30023.288818,-6856.993555
2954.003041,-2528.276953,-23094.469214,-8643.067993
2954.003289,-3921.702319,-14551.957690,-10132.261426
2954.003537,-4869.806177,-8623.914380,-11300.631836
2954.003785,-4831.498950,-4620.809204,-9241.618408
2954.004033,-4381.389038,-2528.276953,-7627.926489
2954.004281,-4295.197778,-3763.685010,-6895.300781
2954.004528,-3921.702319,-8068.459595,-8197.746484
2954.004776,-3107.673755,-9868.899243,-10381.258398
2954.005024,-1489.193433,-6828.263135,-8935.160596
2954.005272,234.631763,-541.089575,-6981.492041
2954.005520,1144.428394,7527.370020,-5046.977100
2954.005768,1470.039819,14398.728784,-5037.400293
2954.006016,2149.993091,17578.228589,-7378.929517
2954.006264,2839.523169,16783.353638,-8456.320264
2954.006512,3289.633081,13771.447949,-8360.552197
2954.006760,3782.838623,11683.704102,-6440.402466
2954.007008,3902.548706,13919.888452,-4496.310718
2954.007256,4027.047192,19795.259326,-5468.356592
2954.007504,4185.064502,26115.951709,-8207.323291
2954.007751,3414.131567,30846.894189,-10079.588989
2954.007999,2705.447876,33796.550635,-10204.087476
2954.008247,2949.656445,35601.778687,-9236.830005
2954.008495,3284.844678,35711.911963,-7723.694556
2954.008743,3730.166187,33198.000220,-9011.775049
2954.008991,3706.224170,28634.651855,-10754.753857
2954.009239,3284.844678,23678.654419,-12057.199561
2954.009487,2580.949390,19378.668237,-12095.506787
2954.009735,2485.181323,15959.748267,-10242.394702
2954.009983,2600.103003,13613.430640,-9816.226807
2954.010231,1005.564697,12152.967627,-10505.756885
2954.010479,-158.017310,10649.408984,-11884.817041
2954.010726,-210.689746,7546.523633,-13603.853833
2954.010974,-646.434448,3931.279126,-12603.077539
2954.011222,-119.710083,1125.274780,-11463.437549
2954.011470,517.147559,-780.509741,-11109.095703
2954.011718,435.744702,-2777.273926,-11243.170996
2954.011966,464.475122,-4515.464331,-12808.978882
2954.012214,-1230.619653,-5487.510205,-14781.801050
2954.012462,-3026.270898,-7747.636572,-13939.042065
2954.012710,-1043.871924,-11348.515869,-12378.022583
2954.012958,-172.382520,-14580.688110,-12023.680737
2954.013206,-474.051929,-16227.898853,-10309.432349
2954.013454,-1594.538306,-16888.698511,-13469.778540
2954.013701,-2920.926025,-16697.162378,-13306.972827
2954.013949,-2896.984009,-17788.918335,-13618.219043
2954.014197,-2126.051074,-20355.502515,-12512.097876
2954.014445,-890.643018,-23664.289209,-8671.798413
2954.014693,-699.106885,-27380.090186,-9926.360083
2954.014941,-622.492432,-28572.402612,-9519.345801
2954.015189,-608.127222,-27767.950854,-11161.768140
2954.015437,-344.765039,-27878.084131,-10888.829150
2954.015685,95.768066,-30693.665283,-8623.914380
2954.015933,-636.857642,-32570.719385,-7479.485986
2954.016181,-2011.129395,-29740.773022,-6952.761621
2954.016429,-2935.291235,-22155.942163,-9591.171851
2954.016676,-4429.273071,-13254.300391,-10793.061084
2954.016924,-5032.611890,-7359.775903,-10438.719238
2954.017172,-4065.354419,-2892.195605,-8925.583789
2954.017420,-4362.235425,-928.950244,-6833.051538
2954.017668,-4113.238452,-3136.404175,-7766.790186
2954.017916,-3931.279126,-7675.810522,-9208.099585
2954.018164,-2499.546533,-8963.891016,-10280.701929
2954.018412,-612.915625,-5042.188696,-8762.778076
2954.018660,1015.141504,1484.405029,-5789.179614
2954.018908,1508.347046,9955.090503,-4841.075757
2954.019156,1642.422339,16654.066748,-5415.684155
2954.019404,1613.691919,19704.279663,-7843.404639
2954.019651,2561.795776,17482.460522,-9150.638745
2954.019899,2355.894434,12909.535352,-7240.065820
2954.020147,3246.537451,9366.116895,-6062.118604
2954.020395,3150.769385,12478.579053,-4041.412402
2954.020643,3466.804004,19239.804541,-6172.251880
2954.020891,3399.766357,26666.618091,-9428.366138
2954.021139,2604.891406,31660.922754,-9744.400757
2954.021387,2978.386865,34921.825415,-10505.756885
2954.021635,3825.934253,36741.418677,-8341.398584
2954.021883,4496.310718,36358.346411,-7560.888843
2954.022131,5075.707520,33154.904590,-9686.939917
2954.022379,4687.846851,28778.303955,-11094.730493
2954.022627,4079.719629,23520.637109,-12310.984937
2954.022874,3284.844678,18626.888916,-11362.881079
2954.023122,3088.520142,14714.763403,-9514.557397
2954.023370,1996.764185,12191.274854,-9634.267480
2954.023618,430.956299,10831.368311,-10769.119067
2954.023866,-861.912598,9184.157568,-12938.265771
2954.024114,-1254.561670,6148.309863,-13503.297363
2954.024362,-1857.900488,3045.424512,-12401.964600
2954.024610,-1398.213770,215.478149,-11329.362256
2954.024858,-512.359155,-2082.955444,-11027.692847
2954.025106,38.307227,-3897.760303,-11990.161914
2954.025354,38.307227,-5075.707520,-13450.624927
2954.025602,-1671.152759,-6258.443140,-14968.548779
2954.025849,-2418.143677,-8791.508496,-13139.378711
2954.026097,306.457812,-11784.260571,-12191.274854
2954.026345,933.738647,-14753.070630,-11540.052002
2954.026593,383.072266,-16539.145068,-10812.214697
2954.026841,-1096.544360,-17003.620190,-14226.346265
2954.027089,-2346.317627,-16888.698511,-12947.842578
2954.027337,-2518.700146,-18531.120850,-13512.874170
2954.027585,-1742.978809,-22313.959473,-11056.423267
2954.027833,-986.411084,-26159.047339,-8714.894043
2954.028081,-1225.831250,-28639.440259,-10457.872852
2954.028329,-1302.445703,-28423.962109,-9849.745630
2954.028577,-1374.271753,-27107.151196,-11382.034692
2954.028824,-1015.141504,-27380.090186,-9864.110840
2954.029072,-521.935962,-30133.422095,-8212.111694
2954.029320,-1379.060156,-31546.001074,-7287.949854
2954.029568,-2193.088721,-27777.527661,-7800.309009
2954.029816,-3327.940308,-19503.166724,-10041.281763
2954.030064,-4261.678955,-10927.136377,-10414.777222
2954.030312,-4750.096094,-4462.791895,-9763.554370
2954.030560,-4089.296436,-1067.813940,-7896.077075
2954.030808,-3596.090894,-1944.091748,-7019.799268
2954.031054,-3581.725684,-6196.193896,-8068.459595
2954.031299,-3155.557788,-9643.844287,-9457.096558
2954.031545,-2188.300317,-7785.943799,-9691.728320
2954.031791,-761.356128,-2145.204688,-7536.946826
2954.032037,737.414111,5511.452222,-5458.779785
2954.032283,703.895288,13761.871143,-5142.745166
2954.032529,1264.138477,17424.999683,-6306.327173
2954.032775,1877.054102,17520.767749,-8456.320264
2954.033020,2308.010400,15006.856006,-8398.859424
2954.033266,3150.769385,11147.402930,-6856.993555
2954.033512,3122.038965,10912.771167,-5468.356592
2954.033758,3509.899634,15322.890625,-4596.867188
2954.034004,3926.490723,22036.232080,-7766.790186
2954.034250,3552.995264,28735.208325,-9725.247144
2954.034495,3418.919971,33748.666602,-10017.339746
2954.034741,3471.592407,37043.088086,-9892.841260
2954.034987,4161.122485,37737.406567,-7723.694556
2954.035233,4577.713574,35247.436841,-8374.917407
2954.035479,4204.218115,31229.966455,-10644.620581
2954.035725,4352.658618,26187.777759,-11631.031665
2954.035970,3711.012573,20992.360156,-12076.353174
2954.036216,2954.444849,16419.434985,-10702.081421
2954.036462,2758.120312,12995.726611,-8949.525806
2954.036708,1082.179150,11147.402930,-10204.087476
2954.036954,-272.938989,9710.881934,-11803.414185
2954.037200,-560.243188,7599.196069,-13350.068457
2954.037446,-1048.660327,5056.553906,-13785.813159
2954.037691,-919.373437,2427.720483,-11348.515869
2954.037937,-196.324536,-263.362183,-10898.405957
2954.038183,-62.249243,-2384.624854,-11353.304272
2954.038429,301.669409,-4055.777612,-12282.254517
2954.038675,-579.396802,-4984.727856,-15188.815332
2954.038921,-2580.949390,-6737.283472,-14657.302563
2954.039166,-1110.909570,-9701.305127,-12152.967627
2954.039412,517.147559,-13263.877197,-12258.312500
2954.039658,641.646045,-15648.502051,-9926.360083
2954.039904,-258.573779,-16826.449268,-12856.862915
2954.040150,-2049.436621,-17027.562207,-14250.288281
2954.040396,-2595.314600,-17769.764722,-12866.439722
2954.040641,-2274.491577,-20733.786377,-13278.242407
2954.040887,-1182.735620,-24310.723657,-8595.183960
2954.041133,-900.219824,-27442.339429,-9437.942944
2954.041379,-1139.639990,-28107.927490,-10237.606299
2954.041625,-1254.561670,-27351.359766,-10635.043774
2954.041871,-1417.367383,-26781.539771,-11587.936035
2954.042116,-703.895288,-28581.979419,-8848.969336
2954.042362,-608.127222,-31153.352002,-7326.257080
2954.042608,-1302.445703,-30243.555371,-6947.973218
2954.042854,-2226.607544,-23740.903662,-8887.276562
2954.043100,-3634.398120,-15140.931299,-10807.426294
2954.043346,-4625.597607,-8092.401611,-10524.910498
2954.043592,-4410.119458,-3471.592407,-9030.928662
2954.043837,-4041.412402,-1551.442676,-7240.065820
2954.044083,-3600.879297,-4319.139795,-7460.332373
2954.044329,-3677.493750,-7972.691528,-8791.508496
2954.044575,-3763.685010,-9093.177905,-10295.067139
2954.044821,-1848.323682,-6224.924316,-8753.201270
2954.045067,-1096.544360,1000.776294,-6713.341455
2954.045312,-43.095630,8571.241943,-5281.608862
2954.045558,890.643018,15059.528442,-5837.063647
2954.045804,1450.886206,16917.428931,-7350.199097
2954.046050,2078.167041,16256.629272,-8590.395557
2954.046296,2944.868042,13019.668628,-7785.943799
2954.046542,3557.783667,11434.707129,-5870.582471
2954.046787,4060.566016,13445.836523,-5104.437939
2954.047033,4654.328027,19335.572607,-6009.446167
2954.047279,4793.191724,25828.647510,-8638.279590
2954.047525,3998.316772,31809.363257,-9835.380420
2954.047771,3682.282153,35328.839697,-9797.073193
2954.048017,3883.395093,37330.392285,-8748.412866
2954.048263,3682.282153,36506.786914,-8154.650854
2954.048508,3466.804004,32647.333838,-9380.482104
2954.048754,3394.977954,28026.524634,-11042.058057
2954.049000,2964.021655,23142.353247,-12148.179224
2954.049246,2542.642163,18540.697656,-11042.058057
2954.049492,2303.221997,14867.992310,-10084.377393
2954.049738,2159.569897,12363.657373,-9490.615381
2954.049983,416.591089,10759.542261,-10869.675537
2954.050229,-320.823022,8963.891016,-12741.941235
2954.050475,-124.498486,6545.747339,-13086.706274
2954.050721,-33.518823,4108.450049,-12397.176196
2954.050967,565.031592,1608.903516,-10821.791504
2954.051213,1096.544360,-809.240161,-10673.351001
2954.051458,684.741675,-2925.714429,-11650.185278
2954.051704,349.553442,-4280.832568,-13374.010474
2954.051950,-1589.749902,-4797.980127,-15193.603735
2954.052196,-2681.505859,-7771.578589,-13709.198706
2954.052442,-287.304199,-10955.866797,-12162.544434
2954.052688,258.573779,-14585.476514,-11137.826123
2954.052934,-186.747729,-16582.240698,-10831.368311
2954.053179,-1766.920825,-17329.231616,-14025.233325
2954.053425,-3150.769385,-16931.794141,-13747.505933
2954.053671,-2801.215942,-18784.906226,-13891.158032
2954.053917,-1719.036792,-21528.661328,-10850.521924
2954.054163,-565.031592,-25076.868188,-8599.972363
2954.054409,-622.492432,-28289.886816,-9725.247144
2954.054654,-770.932935,-28299.463623,-10036.493359
2954.054900,-995.987891,-27150.246826,-11741.164941
2954.055146,-689.530078,-27557.261108,-10438.719238
2954.055392,-167.594116,-30348.900244,-8418.013037
2954.055638,-751.779321,-31579.519897,-6943.184814
2954.055884,-2020.706201,-27748.797241,-7532.158423
2954.056129,-3102.885352,-20312.406885,-10117.896216
2954.056375,-4611.232397,-11937.489478,-10941.501587
2954.056621,-4884.171387,-5980.715747,-10510.545288
2954.056867,-4295.197778,-2197.877124,-8154.650854
2954.057113,-4165.910889,-1527.500659,-6766.013892
2954.057359,-4185.064502,-4568.136768,-7790.732202
2954.057604,-4012.681982,-8810.662109,-9720.458740
2954.057850,-2796.427539,-8762.778076,-10299.855542
2954.058096,-1297.657300,-4367.023828,-8159.439258
2954.058342,215.478149,2130.839478,-5305.550879
2954.058588,828.393774,10496.180078,-4960.785840
2954.058834,976.834277,16678.008765,-5990.292554
2954.059080,2015.917798,18363.526733,-8441.955054
2954.059325,2466.027710,16768.988428,-9026.140259
2954.059571,2997.540479,12564.770312,-7015.010864
2954.059817,3730.166187,10994.174023,-5272.032056
2954.060063,4065.354419,15164.873315,-4338.293408
2954.060309,4620.809204,21878.214771,-7120.355737
2954.060555,4209.006519,28735.208325,-9600.748657
2954.060800,3318.363501,33724.724585,-10251.971509
2954.061046,3165.134595,36099.772632,-9643.844287
2954.061292,3543.418457,36430.172461,-7881.711865
2954.061538,3816.357446,34624.944409,-8130.708838
2954.061784,3888.183496,30621.839233,-10256.759912
2954.062030,3610.456104,26001.030029,-11851.298218
2954.062275,2839.523169,21294.029565,-12205.640063
2954.062521,2308.010400,17013.196997,-10788.272681
2954.062767,2466.027710,13848.062402,-9313.444458
2954.063013,1628.057129,11860.875024,-9844.957227
2954.063259,205.901343,10884.040747,-11473.014355
2954.063505,-52.672437,8959.102612,-13330.914844
2954.063751,-296.881006,5770.026001,-13273.454004
2954.063996,-234.631763,2925.714429,-11314.997046
2954.064242,488.417139,277.727393,-10888.829150
2954.064488,598.550415,-2149.993091,-11156.979736
2954.064734,622.492432,-4137.180469,-12248.735693
2954.064980,52.672437,-4659.116431,-14762.647437
2954.065226,-2513.911743,-5942.408521,-14360.421558
2954.065471,-1824.381665,-9241.618408,-12502.521069
2954.065717,114.921680,-12722.787622,-12129.025610
2954.065963,-33.518823,-15576.676001,-10453.084448
2954.066209,-612.915625,-17147.272290,-12698.845605
2954.066455,-2236.184351,-17061.081030,-14216.769458
2954.066701,-2959.233252,-17305.289600,-12832.920898
2954.066946,-2106.897461,-19847.931763,-13512.874170
2954.067192,-933.738647,-22821.530225,-8959.102612
2954.067438,-445.321509,-26542.119604,-9284.714038
2954.067684,-756.567725,-28414.385303,-10433.930835
2954.067930,-948.103857,-27629.087158,-10295.067139
2954.068176,-1048.660327,-26728.867334,-11702.857715
2954.068421,-220.266553,-28629.863452,-8935.160596
2954.068667,-272.938989,-31617.827124,-7455.543970
2954.068913,-1561.019482,-31201.236035,-6909.665991
2954.069159,-2892.195605,-25680.207007,-8576.030347
2954.069405,-3983.951562,-17520.767749,-10821.791504
2954.069651,-5003.881470,-9744.400757,-10654.197388
2954.069897,-4572.925171,-4237.736938,-9241.618408
2954.070142,-3888.183496,-1125.274780,-7354.987500
2954.070388,-4242.525342,-1091.755957,-6809.109521
2954.070634,-4146.757275,-4975.151050,-8753.201270
2954.070880,-3514.688037,-9117.119922,-10400.412012
2954.071126,-2140.416284,-7465.120776,-9782.707983
2954.071372,-119.710083,-3347.093921,-6928.819604
2954.071617,1297.657300,4118.026855,-4601.655591
2954.071863,1024.718311,13268.665601,-5415.684155
2954.072109,1556.231079,18875.885889,-6588.842969
2954.072355,1944.091748,19709.068066,-9308.656055
2954.072601,2121.262671,16491.261035,-8418.013037
2954.072847,3059.789722,11621.454858,-6133.944653
2954.073092,3500.322827,11324.573853,-5219.359619
2954.073338,3921.702319,16745.046411,-4544.194751
2954.073584,3907.337109,23793.576099,-8566.453540
2954.073830,3150.769385,30257.920581,-10299.855542
2954.074076,2394.201660,34093.431641,-9926.360083
2954.074322,3141.192578,35932.178516,-9476.250171
2954.074568,3677.493750,35893.871289,-7436.390356
2954.074813,4223.371729,33695.994165,-8609.549170
2954.075059,4357.447021,29520.506470,-10927.136377
2954.075305,3945.644336,24851.813232,-11674.127295
2954.075551,3107.673755,20192.696802,-11937.489478
2954.075797,2815.581152,15964.536670,-10419.565625
2954.076043,2772.485522,13010.091821,-9026.140259
2954.076288,1240.196460,11382.034692,-10668.562598
2954.076534,81.402856,10151.415039,-11774.683765
2954.076780,-344.765039,7742.848169,-13464.990137
2954.077026,-1053.448730,4951.209033,-12799.402075
2954.077272,-823.605371,2154.781494,-11224.017383
2954.077518,-201.112939,-703.895288,-11147.402930
2954.077763,62.249243,-3265.691064,-11391.611499
2954.078009,555.454785,-4865.017773,-13057.975854
2954.078255,-861.912598,-5377.376929,-14647.725757
2954.078501,-2877.830396,-7522.581616,-13977.349292
2954.078747,-579.396802,-10797.849487,-11784.260571
2954.078993,723.048901,-14130.578198,-12090.718384
2954.079239,593.762012,-16089.035156,-10472.238062
2954.079484,-440.533105,-17104.176660,-13211.204761
2954.079730,-2126.051074,-16864.756494,-14025.233325
2954.079976,-2240.972754,-17908.628418,-12435.483423
2954.080222,-1637.633936,-20547.038647,-12531.251489
2954.080468,-881.066211,-23726.538452,-8757.989673
2954.080714,-842.758984,-27207.707666,-10113.107813
2954.080959,-1019.929907,-28160.599927,-10472.238062
2954.081205,-1288.080493,-27384.878589,-10721.235034
2954.081451,-1436.520996,-27284.322119,-11133.037720
2954.081697,-656.011255,-29970.616382,-8485.050684
2954.081943,-933.738647,-32029.629810,-7536.946826
2954.082189,-2231.395947,-29635.428149,-7460.332373
2954.082434,-3337.517114,-22807.165015,-9452.308154
2954.082680,-4510.675928,-14374.786768,-10644.620581
2954.082926,-4735.730884,-7718.906152,-10084.377393
2954.083172,-4338.293408,-2628.833423,-8643.067993
2954.083418,-3538.630054,-378.283862,-7206.546997
2954.083664,-3687.070557,-1465.251416,-7603.984473
2954.083909,-3342.305518,-6440.402466,-9418.789331
2954.084155,-2317.587207,-8638.279590,-10012.551343
2954.084401,-1134.851587,-6435.614062,-8743.624463
2954.084647,857.124194,-1082.179150,-5736.507178
2954.084893,1000.776294,8418.013037,-5152.321973
2954.085139,967.257471,16716.315991,-5760.449194
2954.085385,1221.042847,20954.052930,-7666.233716
2954.085630,1417.367383,19551.050757,-9145.850342
2954.085876,1900.996118,13512.874170,-7019.799268
2954.086122,2461.239307,9188.945972,-6536.170532
2954.086368,2906.560815,10812.214697,-4505.887524
2954.086614,3256.114258,17908.628418,-6430.825659
2954.086860,3366.247534,26106.374902,-9500.192187
2954.087105,2901.772412,31847.670483,-9648.632690
2954.087351,3394.977954,35247.436841,-9974.244116
2954.087597,4381.389038,36995.204053,-8183.381274
2954.087843,5032.611890,36133.291455,-8101.978418
2954.088089,5295.974072,33202.788623,-10079.588989
2954.088335,5137.956763,28874.072021,-11046.846460
2954.088580,4520.252734,23970.747021,-11765.106958
2954.088826,3605.667700,18607.735303,-11166.556543
2954.089072,3083.731738,14302.960718,-9600.748657
2954.089318,2006.340991,11463.437549,-9945.513696
2954.089564,349.553442,10362.104785,-11262.324609
2954.089810,-723.048901,9002.198242,-12703.634009
2954.090056,-1369.483350,6325.480786,-13239.935181
2954.090301,-1872.265698,3500.322827,-11846.509814
2954.090547,-1422.155786,574.608398,-11477.802759
2954.090793,-641.646045,-2274.491577,-11468.225952
2954.091039,-90.979663,-4462.791895,-12076.353174
2954.091285,100.556470,-5372.588525,-13718.775513
2954.091531,-1848.323682,-6076.483813,-14480.131641
2954.091776,-2298.433594,-8350.975391,-13010.091821
2954.092022,502.782349,-11511.321582,-11999.738721
2954.092268,1096.544360,-14762.647437,-11664.550488
2954.092514,751.779321,-16299.724902,-11468.225952
2954.092760,-751.779321,-16984.466577,-13752.294336
2954.093006,-2188.300317,-16850.391284,-12679.691992
2954.093251,-2068.590234,-19014.749585,-13187.262744
2954.093497,-1307.234106,-22333.113086,-10840.945117
2954.093743,-694.318481,-26024.972046,-9246.406812
2954.093989,-890.643018,-28500.576562,-10352.527979
2954.094235,-1168.370410,-27964.275391,-9892.841260
2954.094481,-1742.978809,-26585.215234,-10955.866797
2954.094726,-1264.138477,-27466.281445,-9562.441431
2954.094972,-603.338818,-30645.781250,-8259.995728
2954.095218,-1292.868896,-31249.120068,-7479.485986
2954.095464,-2705.447876,-27198.130859,-7795.520605
2954.095710,-3687.070557,-19258.958154,-9926.360083
2954.095956,-4936.843823,-10668.562598,-10204.087476
2954.096202,-4812.345337,-4663.904834,-9811.438403
2954.096447,-4156.334082,-924.161841,-8145.074048
2954.096693,-3653.551733,-1019.929907,-7264.007837
2954.096939,-3394.977954,-5013.458276,-8212.111694
2954.097185,-3107.673755,-8561.665137,-9279.925635
2954.097431,-1991.975781,-7800.309009,-9476.250171
2954.097677,-325.611426,-3964.797949,-7354.987500
2954.097922,948.103857,3572.148877,-5765.237598
2954.098168,962.469067,12454.637036,-5468.356592
2954.098414,1096.544360,18425.775977,-6033.388184
2954.098660,1484.405029,18895.039502,-8528.146313
2954.098906,1786.074438,15734.693311,-8073.247998
2954.099152,2523.488550,10850.521924,-7115.567334
2954.099397,2705.447876,10280.701929,-5904.101294
2954.099643,2978.386865,15035.586426,-4788.403320
2954.099889,3634.398120,22251.710229,-8068.459595
2954.100135,3217.807031,29147.011011,-9174.580762
2954.100381,2834.734766,34289.756177,-9639.055884
2954.100627,3567.360474,37205.893799,-9816.226807
2954.100873,4204.218115,37268.143042,-8058.882788
2954.101118,4707.000464,34979.286255,-8829.815723
2954.101364,4769.249707,30904.355029,-10357.316382
2954.101610,4572.925171,26106.374902,-11061.211670
2954.101856,3773.261816,20609.287891,-11870.451831
2954.102102,3313.575098,15725.116504,-10625.466968
2954.102348,2964.021655,12559.981909,-9615.113867
2954.102593,1379.060156,10783.484277,-10702.081421
2954.102839,-105.344873,9198.522778,-11310.208643
2954.103085,-608.127222,7651.868506,-13105.859888
2954.103331,-1259.350073,5401.318945,-13144.167114
2954.103577,-1177.947217,3059.789722,-11812.990991
2954.103823,-325.611426,-268.150586,-11353.304272
2954.104068,76.614453,-3189.076611,-11104.307300
2954.104314,248.996973,-4874.594580,-12339.715356
2954.104560,-924.161841,-5176.263989,-14432.247607
2954.104806,-2681.505859,-6469.132886,-14460.978027
2954.105052,-1005.564697,-8925.583789,-12411.541406
2954.105298,785.298145,-12617.442749,-12454.637036
2954.105544,727.837305,-15691.597681,-9998.186133
2954.105789,-177.170923,-17482.460522,-12497.732666
2954.106035,-1805.228052,-17262.193970,-13781.024756
2954.106281,-2403.778467,-17827.225562,-13034.033838
2954.106527,-1695.094775,-20762.516797,-13488.932153
2954.106773,-541.089575,-24277.204834,-8810.662109
2954.107019,-512.359155,-27753.585645,-9246.406812
2954.107264,-790.086548,-28754.361938,-9720.458740
2954.107510,-1312.022510,-27523.742285,-10601.524951
2954.107756,-1455.674609,-26542.119604,-11535.263599
2954.108002,-756.567725,-28309.040430,-9102.754712
2954.108248,-545.877979,-31129.409985,-7776.366992
2954.108494,-2035.071411,-29309.816724,-6627.150195
2954.108739,-3232.172241,-22993.912744,-8757.989673
2954.108985,-4041.412402,-14427.459204,-10596.736548
2954.109231,-5200.206006,-7431.601953,-10793.061084
2954.109477,-4663.904834,-2997.540479,-9447.519751
2954.109723,-3993.528369,-1364.694946,-7268.796240
2954.109969,-3912.125513,-3122.038965,-7201.758594
2954.110214,-3605.667700,-7244.854224,-8571.241943
2954.110460,-3107.673755,-8671.798413,-10170.568652
2954.110706,-1762.132422,-6253.654736,-9380.482104
2954.110952,-229.843359,-972.045874,-6718.129858
2954.111198,675.164868,6861.781958,-5109.226343
2954.111444,694.318481,14551.957690,-5204.994409
2954.111690,1470.039819,17688.361865,-7120.355737
2954.111935,2111.685864,17271.770776,-8710.105640
2954.112181,2691.082666,13766.659546,-7982.268335
2954.112427,3241.749048,11185.710156,-6277.596753
2954.112673,3145.980981,13594.277026,-5027.823486
2954.112919,4228.160132,19560.627563,-5841.852051
2954.113165,4003.105176,26441.563135,-8628.702783
2954.113410,3485.957617,32082.302246,-10017.339746
2954.113656,3217.807031,35659.239526,-9998.186133
2954.113902,3289.633081,37229.835815,-9035.717065
2954.114148,3734.954590,35989.639355,-7680.598926
2954.114394,3821.145850,32173.281909,-9174.580762
2954.114640,3940.855933,27643.452368,-11061.211670
2954.114885,3342.305518,22744.915771,-12129.025610
2954.115131,2705.447876,17951.724048,-11563.994019
2954.115377,2786.850732,14097.059375,-9959.878906
2954.115623,2312.798804,11961.431494,-9471.461768
2954.115869,857.124194,11061.211670,-10625.466968
2954.116115,47.884033,9471.461768,-12469.002246
2954.116361,23.942017,6540.958936,-13421.894507
2954.116606,-234.631763,3907.337109,-12703.634009
2954.116852,225.054956,1379.060156,-10955.866797
2954.117098,1029.506714,-1465.251416,-10807.426294
2954.117344,804.451758,-3840.299463,-11247.959399
2954.117590,215.478149,-4754.884497,-13402.740894
2954.117836,-1939.303345,-4678.270044,-15543.157178
2954.118081,-2777.273926,-7422.025146,-13187.262744
2954.118327,-52.672437,-11635.820068,-12617.442749
2954.118573,402.225879,-14781.801050,-10931.924780
2954.118819,-239.420166,-16630.124731,-10424.354028
2954.119065,-1790.862842,-17132.907080,-14307.749121
2954.119311,-2978.386865,-17070.657837,-13330.914844
2954.119556,-2571.372583,-19268.534961,-14202.404248
2954.119802,-972.045874,-22213.403003,-10826.579907
2954.120048,-19.153613,-25723.302637,-8106.766821
2954.120294,-191.536133,-28332.982446,-9921.571680
2954.120540,-517.147559,-28093.562280,-10046.070166
2954.120786,-1206.677637,-26714.502124,-11812.990991
2954.121031,-632.069238,-27274.745312,-10931.924780
2954.121277,105.344873,-30186.094531,-8106.766821
2954.121523,-814.028564,-30918.720239,-6684.611035
2954.121769,-2331.952417,-26633.099268,-7479.485986
2954.122015,-3821.145850,-19225.439331,-9768.342773
2954.122261,-5046.977100,-11324.573853,-11635.820068
2954.122507,-5367.800122,-5803.544824,-10529.698901
2954.122752,-4419.696265,-2585.737793,-8303.091357
2954.122998,-4443.638281,-1939.303345,-6876.147168
2954.123244,-4237.736938,-4548.983154,-7038.952881
2954.123490,-4199.429712,-8020.575562,-9610.325464
2954.123736,-2868.253589,-7685.387329,-10568.006128
2954.123982,-1316.810913,-4209.006519,-8279.149341
2954.124227,588.973608,1790.862842,-5904.101294
2954.124473,1067.813940,10400.412012,-4266.467358
2954.124719,1608.903516,16055.516333,-5573.701465
2954.124965,2149.993091,18114.529761,-8192.958081
2954.125211,2580.949390,16922.217334,-8973.467822
2954.125457,3098.096948,13215.993164,-7508.216406
2954.125702,3399.766357,12090.718384,-5453.991382
2954.125948,3945.644336,15945.383057,-4338.293408
2954.126194,4194.641309,22438.457959,-6833.051538
2954.126440,3591.302490,29008.147314,-9490.615381
2954.126686,2609.679810,33485.304419,-10400.412012
2954.126932,2537.853760,35606.567090,-10328.585962
2954.127178,3007.117285,36066.253809,-7876.923462
2954.127423,3572.148877,34189.199707,-8106.766821
2954.127669,3897.760303,30406.361084,-9844.957227
2954.127915,3864.241479,25775.975073,-11458.649146
2954.128161,3227.383838,21226.991919,-12344.503760
2954.128407,2844.311572,17046.715820,-10898.405957
2954.128653,2944.868042,13814.543579,-9543.287817
2954.128898,1843.535278,11913.547461,-9696.516724
2954.129144,608.127222,10682.927808,-11147.402930
2954.129390,478.840332,8485.050684,-13311.761230
2954.129636,-158.017310,5396.530542,-13493.720557
2954.129882,-311.246216,2657.563843,-12057.199561
2954.130128,172.382520,-201.112939,-11147.402930
2954.130373,383.072266,-2695.871069,-10802.637891
2954.130619,555.454785,-4735.730884,-12243.947290
2954.130865,-210.689746,-5008.669873,-14451.401221
2954.131111,-2413.355273,-5875.370874,-14915.876343
2954.131359,-1848.323682,-9174.580762,-12804.190479
2954.131606,177.170923,-13062.764258,-11985.373511
2954.131854,248.996973,-16041.151123,-10271.125122
2954.132102,-493.205542,-17314.866406,-12004.527124
2954.132349,-1934.514941,-17372.327246,-14183.250635
2954.132597,-2633.621826,-17525.556152,-13321.338037
2954.132845,-1896.207715,-20025.102686,-13163.320728
2954.133092,-555.454785,-22989.124341,-9088.389502
2954.133340,-344.765039,-26575.638428,-9078.812695
2954.133588,-694.318481,-28294.675220,-9902.418066
2954.133835,-1034.295117,-27380.090186,-10955.866797
2954.134083,-1307.234106,-26542.119604,-11468.225952
2954.134331,-526.724365,-28452.692529,-9318.232861
2954.134578,-387.860669,-31124.621582,-7388.506323
2954.134826,-1608.903516,-30516.494360,-6406.883643
2954.135074,-2839.523169,-24851.813232,-8825.027319
2954.135321,-4185.064502,-16328.455322,-10702.081421
2954.135569,-5133.168359,-8676.586816,-11008.539233
2954.135817,-4635.174414,-3931.279126,-9442.731348
2954.136064,-3897.760303,-1398.213770,-7086.836914
2954.136312,-3768.473413,-1872.265698,-6655.880615
2954.136559,-3471.592407,-5597.643481,-8609.549170
2954.136807,-3203.441821,-8571.241943,-10333.374365
2954.137055,-1656.787549,-6636.727002,-9974.244116
2954.137302,-215.478149,-1881.842505,-7067.683301
2954.137550,1192.312427,5980.715747,-4879.382983
2954.137798,837.970581,14312.537524,-5032.611890
2954.138045,1316.810913,18660.407739,-6641.515405
2954.138293,1877.054102,18660.407739,-9064.447485
2954.138541,1738.190405,15193.603735,-8470.685474
2954.138788,2418.143677,11085.153687,-6550.535742
2954.139036,2523.488550,11501.744775,-5104.437939
2954.139284,3332.728711,17180.791113,-5099.649536
2954.139531,3433.285181,24147.917944,-8523.357910
2954.139779,2920.926025,30435.091504,-10074.800586
2954.140027,2710.236279,34189.199707,-10223.241089
2954.140274,3696.647363,35932.178516,-9208.099585
2954.140522,4390.965845,35678.393140,-7532.158423
2954.140770,5118.803149,33135.750977,-8858.546143
2954.141017,5295.974072,29539.660083,-10663.774194
2954.141265,4707.000464,25311.499951,-12071.564771
2954.141513,3787.627026,20623.653101,-11779.472168
2954.141760,3059.789722,16251.840869,-10261.548315
2954.142008,2518.700146,12780.248462,-9270.348828
2954.142256,790.086548,10951.078394,-10443.507642
2954.142503,-253.785376,9136.273535,-12090.718384
2954.142751,-905.008228,6612.784985,-13517.662573
2954.142999,-1738.190405,3950.432739,-12808.978882
2954.143246,-1584.961499,1503.558643,-11410.765112
2954.143494,-588.973608,-1570.596289,-10888.829150
2954.143742,38.307227,-4223.371729,-11171.344946
2954.143989,435.744702,-5870.582471,-13230.358374
2954.144237,-775.721338,-5741.295581,-14623.783740
2954.144485,-2427.720483,-7201.758594,-13958.195679
2954.144732,-421.379492,-10295.067139,-11798.625781
2954.144980,981.622681,-14087.482568,-11530.475195
2954.145228,727.837305,-16385.916162,-10903.194360
2954.145475,-134.075293,-17788.918335,-12880.804932
2954.145723,-1915.361328,-17377.115649,-13867.216016
2954.145971,-2351.106030,-18521.544043,-12808.978882
2954.146218,-1532.289062,-21380.220825,-11822.567798
2954.146466,-751.779321,-24545.355420,-8973.467822
2954.146714,-1048.660327,-27643.452368,-9509.768994
2954.146961,-1168.370410,-28170.176733,-10515.333691
2954.147209,-1733.402002,-26982.652710,-10917.559570
2954.147456,-1589.749902,-26518.177588,-10740.388647
2954.147704,-694.318481,-29036.877734,-8738.836060
2954.147952,-1158.793604,-31268.273682,-6971.915234
2954.148199,-2427.720483,-28543.672192,-7613.561279
2954.148447,-3394.977954,-21782.446704,-9490.615381
2954.148695,-4663.904834,-12631.807959,-10496.180078
2954.148942,-4845.864160,-5669.469531,-10591.948145
2954.149190,-3806.780640,-1886.630908,-8346.186987
2954.149438,-3552.995264,-1163.582007,-6914.454395
2954.149685,-3150.769385,-4563.348364,-7321.468677
2954.149933,-3189.076611,-8877.699756,-8954.314209
2954.150181,-2408.566870,-8451.531860,-10429.142432
2954.150428,-761.356128,-4122.815259,-8494.627490
2954.150676,928.950244,2221.819141,-6071.695410
2954.150924,718.260498,10998.962427,-5181.052393
2954.151171,928.950244,16768.988428,-5683.834741
2954.151419,1268.926880,18397.045557,-8006.210352
2954.151667,1493.981836,16610.971118,-8906.430176
2954.151914,2231.395947,12689.268799,-7436.390356
2954.152162,2379.836450,11061.211670,-6473.921289
2954.152410,2614.468213,13991.714502,-4079.719629
2954.152657,3524.264844,20408.174951,-6531.382129
2954.152905,3260.902661,27404.032202,-9308.656055
2954.153153,2940.079639,32910.696021,-9701.305127
2954.153400,3500.322827,36133.291455,-10548.852515
2954.153648,4328.716602,36985.627246,-8010.998755
2954.153896,4774.038110,35319.262891,-8044.517578
2954.154143,5152.321973,31761.479224,-9701.305127
2954.154391,5018.246680,26944.345483,-11190.498560
2954.154639,4448.426685,21926.098804,-12301.408130
2954.154886,3538.630054,17444.153296,-10888.829150
2954.155134,2949.656445,13843.273999,-9452.308154
2954.155382,1604.115112,11525.686792,-9739.612354
2954.155629,-76.614453,9888.052856,-11027.692847
2954.155877,-550.666382,8039.729175,-13359.645264
2954.156125,-1264.138477,5358.223315,-13646.949463
2954.156372,-1599.326709,3155.557788,-12172.121240
2954.156620,-1139.639990,71.826050,-11113.884106
2954.156868,-354.341846,-3040.636108,-10390.835205
2954.157115,9.576807,-5391.742139,-12124.237207
2954.157363,-292.092603,-5731.718774,-14226.346265
2954.157611,-2030.283008,-6033.388184,-14982.913989
2954.157858,-1546.654272,-8111.555225,-13158.532324
2954.158106,723.048901,-11377.246289,-11602.301245
2954.158353,1086.967554,-14566.322900,-10333.374365
2954.158601,536.301172,-16687.585571,-11621.454858
2954.158849,-976.834277,-17367.538843,-14216.769458
2954.159096,-2154.781494,-17611.747412,-13709.198706
2954.159344,-1800.439648,-20575.769067,-13206.416357
2954.159592,-679.953271,-23554.155933,-9605.537061
2954.159839,-694.318481,-26628.310864,-8686.163623
2954.160087,-1110.909570,-28610.709839,-9787.496387
2954.160335,-1527.500659,-28088.773877,-11027.692847
2954.160582,-1944.091748,-26929.980273,-11300.631836
2954.160830,-1211.466040,-27820.623291,-9840.168823
2954.161078,-976.834277,-30229.190161,-7522.581616
2954.161325,-2044.648218,-30219.613354,-6220.135913
2954.161573,-3016.694092,-24981.100122,-8686.163623
2954.161821,-4185.064502,-16366.762549,-10338.162769
2954.162068,-4975.151050,-8537.723120,-11343.727466
2954.162316,-4673.481641,-3308.786694,-9658.209497
2954.162564,-3591.302490,-1139.639990,-6967.126831
2954.162811,-3347.093921,-2590.526196,-6928.819604
2954.163059,-2983.175269,-7331.045483,-7948.749512
2954.163307,-2590.526196,-9543.287817,-10165.780249
2954.163554,-1853.112085,-7019.799268,-9902.418066
2954.163802,124.498486,-1934.514941,-7412.448340
2954.164050,488.417139,6684.611035,-5157.110376
2954.164297,665.588062,14609.418530,-4941.632227
2954.164545,1359.906543,17659.631445,-6598.419775
2954.164793,1436.520996,17334.020020,-9050.082275
2954.165040,1747.767212,14183.250635,-8336.610181
2954.165288,2518.700146,10960.655200,-7105.990527
2954.165536,2279.279980,12315.773340,-4865.017773
2954.165783,3160.346191,17511.190942,-5128.379956
2954.166031,3864.241479,24301.146851,-8403.647827
2954.166279,3366.247534,30655.358057,-9701.305127
2954.166526,3203.441821,34912.248608,-10687.716211
2954.166774,3983.951562,37114.914136,-9255.983618
2954.167022,4386.177441,36765.360693,-7513.004810
2954.167269,4855.440967,33360.805933,-8757.989673
2954.167517,4874.594580,28644.228662,-10711.658228
2954.167765,4295.197778,24167.071558,-12416.329810
2954.168012,3687.070557,19110.517651,-11870.451831
2954.168260,2992.752075,15265.429785,-10160.991846
2954.168507,2375.048047,12813.767285,-9222.464795
2954.168755,871.489404,11089.942090,-10165.780249
2954.169003,-330.399829,9093.177905,-12478.579053
2954.169250,-411.802686,6708.553052,-13623.007446
2954.169498,-1091.755957,4577.713574,-13129.801904
2954.169746,-737.414111,2154.781494,-11530.475195
2954.169993,33.518823,-1321.599316,-10160.991846
2954.170241,344.765039,-4017.470386,-11128.249316
2954.170489,354.341846,-5343.858105,-13235.146777
2954.170736,-1043.871924,-5046.977100,-15227.122559
2954.170984,-2336.740820,-6919.242798,-14504.073657
2954.171232,-603.338818,-9763.554370,-11846.509814
2954.171479,507.570752,-13340.491650,-11133.037720
2954.171727,387.860669,-16256.629272,-10500.968481
2954.171975,-665.588062,-17774.553125,-13345.280054
2954.172222,-2384.624854,-17554.286572,-14336.479541
2954.172470,-2494.758130,-18804.059839,-13848.062402
2954.172718,-1513.135449,-21543.026538,-11286.266626
2954.172965,-588.973608,-24703.372729,-8647.856396
2954.173213,-612.915625,-27748.797241,-9088.389502
2954.173461,-986.411084,-27993.005811,-10496.180078
2954.173708,-1393.425366,-26872.519434,-11769.895361
2954.173956,-938.527051,-27016.171533,-10591.948145
2954.174204,-335.188232,-29482.199243,-8571.241943
2954.174451,-713.472095,-31019.276709,-6315.903979
2954.174699,-2231.395947,-28031.313037,-7134.720947
2954.174947,-3347.093921,-21437.681665,-9730.035547
2954.175194,-4960.785840,-12603.077539,-11305.420239
2954.175442,-5185.840796,-5999.869360,-10534.487305
2954.175690,-4237.736938,-2073.378638,-8116.343628
2954.175937,-4323.928198,-1206.677637,-6871.358765
2954.176185,-3763.685010,-4443.638281,-6876.147168
2954.176433,-3892.971899,-8226.476904,-9725.247144
2954.176680,-3184.288208,-8164.227661,-10840.945117
2954.176928,-1359.906543,-5238.513232,-8690.952026
2954.177176,153.228906,1244.984863,-6210.559106
2954.177423,890.643018,9734.823950,-4228.160132
2954.177671,1671.152759,16333.243726,-5688.623145
2954.177919,2049.436621,18301.277490,-7929.595898
2954.178166,2308.010400,16529.568262,-9155.427148
2954.178414,2772.485522,12636.596362,-7843.404639
2954.178662,3227.383838,11171.344946,-6033.388184
2954.178909,3682.282153,14240.711475,-4261.678955
2954.179157,4395.754248,20987.571753,-6445.190869
2954.179404,3888.183496,28021.736230,-9145.850342
2954.179652,2978.386865,33293.768286,-10132.261426
2954.179900,2686.294263,36315.250781,-10515.333691
2954.180147,3107.673755,36961.685229,-7977.479932
2954.180395,3778.050220,35065.477515,-8317.456567
2954.180643,4122.815259,31134.198389,-9399.635718
2954.180890,4271.255762,26484.658765,-11161.768140
2954.181138,3543.418457,21571.756958,-12536.039893
2954.181386,2882.618799,17085.023047,-10625.466968
2954.181633,2887.407202,13752.294336,-9959.878906
2954.181881,1824.381665,11880.028638,-9471.461768
2954.182129,296.881006,10491.391675,-11104.307300
2954.182376,129.286890,8274.360937,-13163.320728
2954.182624,-306.457812,5588.066675,-12976.572998
2954.182872,-665.588062,3409.343164,-12196.063257
2954.183119,-71.826050,718.260498,-10998.962427
2954.183367,153.228906,-2384.624854,-10682.927808
2954.183615,292.092603,-5008.669873,-12291.831323
2954.183862,-339.976636,-5243.301636,-14121.001392
2954.184110,-2327.164014,-5870.582471,-14719.551807
2954.184358,-1982.398975,-8422.801440,-12990.938208
2954.184605,-19.153613,-11812.990991,-11717.222925
2954.184853,234.631763,-15026.009619,-10658.985791
2954.185101,-95.768066,-16788.142041,-11856.086621
2954.185348,-1704.671582,-17319.654810,-14010.868115
2954.185596,-2557.007373,-17511.190942,-13575.123413
2954.185844,-1723.825195,-20005.949072,-13283.030811
2954.186091,-598.550415,-22582.110059,-9504.980591
2954.186339,-158.017310,-26575.638428,-8911.218579
2954.186587,-603.338818,-29012.935718,-9873.687646
2954.186834,-1211.466040,-28251.579590,-10855.310327
2954.187082,-1417.367383,-26661.829687,-11563.994019
2954.187330,-617.704028,-27499.800269,-9931.148486
2954.187577,-440.533105,-30396.784277,-7513.004810
2954.187825,-1441.309399,-30042.442432,-6708.553052
2954.188073,-2911.349219,-24803.929199,-8341.398584
2954.188320,-4132.392065,-16711.527588,-10491.391675
2954.188568,-5147.533569,-9217.676392,-11444.283936
2954.188816,-4458.003491,-4371.812231,-9682.151514
2954.189063,-3960.009546,-1551.442676,-7527.370020
2954.189311,-3720.589380,-2686.294263,-6540.958936
2954.189559,-3562.572070,-6689.399438,-7958.326318
2954.189806,-3696.647363,-8619.125977,-10362.104785
2954.190054,-1896.207715,-7000.645654,-9926.360083
2954.190301,-541.089575,-2044.648218,-7671.022119
2954.190549,550.666382,5420.472559,-5056.553906
2954.190797,785.298145,13263.877197,-4841.075757
2954.191044,1355.118140,17879.897998,-6502.651709
2954.191292,1762.132422,17784.129932,-8556.876733
2954.191540,2336.740820,15064.316846,-8657.433203
2954.191787,2930.502832,12138.602417,-6794.744312
2954.192035,3294.421484,12564.770312,-4812.345337
2954.192283,3715.800977,17889.474805,-4683.058447
2954.192530,4170.699292,24526.201807,-7991.845142
2954.192778,3375.824341,30803.798560,-10065.223779
2954.193026,2901.772412,34936.190625,-10582.371338
2954.193273,3289.633081,36525.940527,-9466.673364
2954.193521,3596.090894,35869.929272,-7699.752539
2954.193769,3840.299463,32996.887280,-8542.511523
2954.194016,4137.180469,28639.440259,-10280.701929
2954.194264,3873.818286,23807.941309,-12109.871997
2954.194512,2973.598462,19187.132104,-11736.376538
2954.194759,2518.700146,15504.849951,-10414.777222
2954.195007,2121.262671,12861.651318,-9203.311182
2954.195255,948.103857,11334.150659,-10223.241089
2954.195502,196.324536,9619.902271,-12224.793677
2954.195750,201.112939,7058.106494,-13350.068457
2954.195998,-229.843359,4323.928198,-13321.338037
2954.196245,-191.536133,1891.419312,-11535.263599
2954.196493,569.819995,-967.257471,-10568.006128
2954.196741,622.492432,-3778.050220,-11319.785449
2954.196988,675.164868,-5128.379956,-13062.764258
2954.197236,-933.738647,-4462.791895,-15289.371802
2954.197484,-2595.314600,-6617.573389,-14058.752148
2954.197731,-852.335791,-9672.574707,-12239.158887
2954.197979,23.942017,-13852.850806,-11516.109985
2954.198227,52.672437,-16438.588599,-10271.125122
2954.198474,-1048.660327,-17961.300854,-13603.853833
2954.198722,-2767.697119,-17597.382202,-14211.981055
2954.198970,-2662.352246,-18904.616309,-13517.662573
2954.199217,-1460.463013,-21265.299146,-11439.495532
2954.199465,-344.765039,-24535.778613,-8303.091357
2954.199713,-387.860669,-27988.217407,-9385.270508
2954.199960,-497.993945,-28687.324292,-10352.527979
2954.200208,-1029.506714,-27341.782959,-11607.089648
2954.200456,-694.318481,-26992.229517,-11042.058057
2954.200703,57.460840,-29247.567480,-8403.647827
2954.200951,-593.762012,-30818.163770,-6526.593726
2954.201198,-2106.897461,-27858.930518,-7216.123804
2954.201446,-3548.206860,-21346.702002,-9662.997900
2954.201694,-4702.212061,-13182.474341,-11214.440576
2954.201941,-5415.684155,-6545.747339,-10682.927808
2954.202189,-4338.293408,-2671.929053,-8231.265308
2954.202437,-4261.678955,-1412.578979,-6718.129858
2954.202684,-4046.200806,-3610.456104,-7010.222461
2954.202932,-4050.989209,-7173.028174,-9418.789331
2954.203180,-3160.346191,-7958.326318,-10726.023438
2954.203427,-1216.254443,-4663.904834,-9006.986646
2954.203675,402.225879,675.164868,-6066.907007
2954.203923,1144.428394,9337.386475,-4323.928198
2954.204170,1326.387720,16199.168433,-5549.759448
2954.204418,1680.729565,18775.329419,-7766.790186
2954.204666,1776.497632,17180.791113,-9572.018237
2954.204913,2389.413257,13326.126440,-7824.251025
2954.205161,2652.775439,10697.293018,-6052.541797
2954.205409,3198.653418,13479.355347,-4261.678955
2954.205656,3936.067529,19972.430249,-5908.889697
2954.205904,3758.896606,27255.591699,-9706.093530
2954.206152,2762.908716,32944.214844,-10213.664282
2954.206399,2968.810059,36080.619019,-10716.446631
2954.206647,3830.722656,36789.302710,-8355.763794
2954.206895,4390.965845,34984.074658,-7532.158423
2954.207142,5090.072729,31522.059058,-9600.748657
2954.207390,5003.881470,27231.649683,-11195.286963
2954.207638,4074.931226,22515.072412,-12191.274854
2954.207885,3055.001318,17970.877661,-11147.402930
2954.208133,2700.659473,14087.482568,-9629.479077
2954.208381,1604.115112,11492.167969,-9624.690674
2954.208628,272.938989,9959.878906,-11128.249316
2954.208876,-181.959326,8293.514551,-12986.149805
2954.209124,-751.779321,5861.005664,-13565.546606
2954.209371,-1307.234106,3275.267871,-12215.216870
2954.209619,-737.414111,292.092603,-10975.020410
2954.209867,19.153613,-3050.212915,-10807.426294
2954.210114,445.321509,-5861.005664,-11975.796704
2954.210362,416.591089,-5980.715747,-14073.117358
2954.210610,-1766.920825,-5597.643481,-15035.586426
2954.210857,-2059.013428,-7259.219434,-12622.231152
2954.211105,229.843359,-10582.371338,-12047.622754
2954.211353,675.164868,-14891.934326,-10716.446631
2954.211600,421.379492,-17434.576489,-11458.649146
2954.211848,-1326.387720,-17717.092285,-14666.879370
2954.212095,-2729.389893,-17343.596826,-12938.265771
2954.212343,-2169.146704,-19694.702856,-13464.990137
2954.212591,-1110.909570,-22424.092749,-9586.383447
2954.212838,-440.533105,-26475.081958,-8729.259253
2954.213086,-718.260498,-29132.645801,-10505.756885
2954.213334,-1264.138477,-28577.191016,-10357.316382
2954.213581,-1623.268726,-26982.652710,-11607.089648
2954.213829,-723.048901,-27490.223462,-9773.131177
2954.214077,-263.362183,-29874.848315,-7374.141113
2954.214324,-1335.964526,-30071.172852,-6919.242798
2954.214572,-2681.505859,-25814.282300,-8226.476904
2954.214820,-4132.392065,-17290.924390,-10405.200415
2954.215067,-5204.994409,-9030.928662,-11434.707129
2954.215315,-4687.846851,-3213.018628,-9653.421094
2954.215563,-3955.221143,-646.434448,-7493.851196
2954.215810,-3466.804004,-2466.027710,-6363.788013
2954.216058,-3366.247534,-6789.955908,-8049.305981
2954.216306,-3485.957617,-8628.702783,-10309.432349
2954.216553,-2015.917798,-6713.341455,-10012.551343
2954.216801,-450.109912,-1249.773267,-7876.923462
2954.217049,588.973608,6344.634399,-5075.707520
2954.217296,1053.448730,13838.485596,-4979.939453
2954.217544,1436.520996,17219.098340,-6354.211206
2954.217792,1819.593262,16711.527588,-8724.470850
2954.218039,2035.071411,13862.427612,-8820.238916
2954.218287,2513.911743,10773.907471,-7019.799268
2954.218535,2829.946362,12066.776367,-4994.304663
2954.218782,3471.592407,17243.040356,-4898.536597
2954.219030,4031.835596,24109.610718,-7742.848169
2954.219278,3256.114258,30727.184106,-9825.803613
2954.219525,2820.369556,35501.222217,-10587.159741
2954.219773,3500.322827,37612.908081,-9658.209497
2954.220021,3926.490723,36918.589600,-7977.479932
2954.220268,4496.310718,33614.591309,-8456.320264
2954.220516,4898.536597,28988.993701,-10232.817896
2954.220764,4529.829541,23798.364502,-11817.779395
2954.221011,3543.418457,18765.752612,-11942.277881
2954.221259,2896.984009,15059.528442,-10534.487305
2954.221507,2212.242334,12430.695020,-9279.925635
2954.221754,818.816968,10673.351001,-10189.722266
2954.222002,43.095630,9059.659082,-11726.799731
2954.222250,-234.631763,7077.260107,-13469.778540
2954.222497,-948.103857,4999.093066,-13335.703247
2954.222745,-952.892261,2207.453931,-11650.185278
2954.222992,-205.901343,-1211.466040,-10788.272681
2954.223240,435.744702,-4395.754248,-11013.327637
2954.223488,617.704028,-5942.408521,-13038.822241
