#time,accel_x,accel_y,accel_z
2994.164942,196.324536,220.266553,-9797.073193
2994.165187,110.133276,426.167896,-9792.284790
2994.165433,114.921680,378.283862,-9945.513696
2994.165678,158.017310,292.092603,-9825.803613
2994.165923,148.440503,167.594116,-9763.554370
2994.166168,177.170923,-23.942017,-9701.305127
2994.166414,38.307227,-67.037646,-9816.226807
2994.166659,105.344873,100.556470,-9926.360083
2994.166904,129.286890,225.054956,-9911.994873
2994.167149,95.768066,316.034619,-9907.206470
2994.167395,100.556470,316.034619,-9926.360083
2994.167640,129.286890,311.246216,-9873.687646
2994.167885,0.000000,177.170923,-9945.513696
2994.168130,-4.788403,114.921680,-9916.783276
2994.168376,-67.037646,186.747729,-9907.206470
2994.168621,-124.498486,95.768066,-9878.476050
2994.168866,-62.249243,-9.576807,-9864.110840
2994.169112,-4.788403,71.826050,-9964.667310
2994.169357,28.730420,177.170923,-9907.206470
2994.169602,19.153613,378.283862,-9878.476050
2994.169847,4.788403,354.341846,-9725.247144
2994.170093,-9.576807,268.150586,-9730.035547
2994.170338,71.826050,86.191260,-9979.032520
2994.170583,67.037646,52.672437,-9902.418066
2994.170828,95.768066,23.942017,-9916.783276
2994.171074,181.959326,90.979663,-9955.090503
2994.171319,162.805713,234.631763,-9878.476050
2994.171564,114.921680,373.495459,-9911.994873
2994.171809,162.805713,411.802686,-9878.476050
2994.172055,-52.672437,325.611426,-9959.878906
2994.172300,90.979663,205.901343,-9964.667310
2994.172545,205.901343,134.075293,-9897.629663
2994.172791,148.440503,62.249243,-9797.073193
2994.173036,119.710083,38.307227,-9878.476050
2994.173281,119.710083,177.170923,-9744.400757
2994.173526,76.614453,426.167896,-9888.052856
2994.173772,220.266553,541.089575,-9888.052856
2994.174017,215.478149,497.993945,-9777.919580
2994.174262,225.054956,435.744702,-9816.226807
2994.174507,167.594116,244.208569,-9792.284790
2994.174753,205.901343,9.576807,-9792.284790
2994.174998,201.112939,-62.249243,-9916.783276
2994.175243,172.382520,81.402856,-9844.957227
2994.175489,47.884033,287.304199,-9926.360083
2994.175734,43.095630,311.246216,-9955.090503
2994.175979,81.402856,248.996973,-9959.878906
2994.176224,0.000000,220.266553,-10017.339746
2994.176470,38.307227,124.498486,-10026.916553
2994.176715,57.460840,-9.576807,-10060.435376
2994.176960,95.768066,-47.884033,-9911.994873
2994.177205,76.614453,114.921680,-9811.438403
2994.177451,-43.095630,201.112939,-9950.302100
2994.177696,-62.249243,210.689746,-9998.186133
2994.177941,-67.037646,95.768066,-9988.609326
2994.178186,81.402856,-210.689746,-9907.206470
2994.178432,114.921680,-861.912598,-9792.284790
2994.178677,19.153613,-1479.616626,-9830.592017
2994.178922,28.730420,-2121.262671,-9926.360083
2994.179168,-47.884033,-3088.520142,-9792.284790
2994.179413,100.556470,-4256.890552,-9816.226807
2994.179658,225.054956,-5377.376929,-9787.496387
2994.179903,296.881006,-6660.669019,-9773.131177
2994.180149,330.399829,-7862.558252,-9710.881934
2994.180394,172.382520,-7872.135059,-9806.650000
2994.180639,-86.191260,-6598.419775,-10065.223779
2994.180884,-282.515796,-5157.110376,-10271.125122
2994.181130,-363.918652,-3605.667700,-10419.565625
2994.181375,-622.492432,-1441.309399,-10381.258398
2994.181620,-962.469067,766.144531,-10548.852515
2994.181865,-1307.234106,2638.410229,-10534.487305
2994.182111,-1345.541333,4209.006519,-10726.023438
2994.182356,-1077.390747,5032.611890,-10644.620581
2994.182601,-545.877979,5181.052393,-10256.759912
2994.182847,-38.307227,5449.202979,-9835.380420
2994.183092,502.782349,6957.550024,-9768.342773
2994.183337,804.451758,9773.131177,-9758.765967
2994.183582,881.066211,12210.428467,-9600.748657
2994.183828,1091.755957,12531.251489,-9610.325464
2994.184073,1455.674609,9931.148486,-9179.369165
2994.184318,1848.323682,5386.953735,-8734.047656
2994.184563,2049.436621,694.318481,-8762.778076
2994.184809,2035.071411,-1441.309399,-8695.740430
2994.185054,1987.187378,100.556470,-8939.948999
2994.185299,1719.036792,3687.070557,-8772.354883
2994.185544,1580.173096,7474.697583,-8633.491187
2994.185790,1685.517969,10874.463940,-8877.699756
2994.186035,1800.439648,13771.447949,-8935.160596
2994.186280,1896.207715,15983.690283,-9423.577734
2994.186526,1656.787549,17003.620190,-9610.325464
2994.186771,1403.002173,16304.513306,-9562.441431
2994.187016,1273.715283,14317.325928,-9495.403784
2994.187261,1450.886206,10673.351001,-9275.137231
2994.187507,1355.118140,5937.620117,-9504.980591
2994.187752,957.680664,1221.042847,-9581.595044
2994.187997,469.263525,-3490.746021,-9710.881934
2994.188242,-263.362183,-8010.998755,-9974.244116
2994.188488,-852.335791,-12253.524097,-9825.803613
2994.188733,-1082.179150,-15873.557007,-9844.957227
2994.188978,-981.622681,-18559.851270,-10194.510669
2994.189224,-1120.486377,-16754.623218,-11185.710156
2994.189469,-1374.271753,-8188.169678,-12421.118213
2994.189714,-2173.935107,-1905.784521,-11774.683765
2994.189959,-3232.172241,402.225879,-12425.906616
2994.190205,-3347.093921,387.860669,-11520.898389
2994.190450,-2743.755103,-2624.045020,-11563.994019
2994.190695,-2738.966699,-5267.243652,-12516.886279
2994.190940,-3442.861987,-6947.973218,-12536.039893
2994.191186,-4118.026855,-9342.174878,-13369.222070
2994.191431,-4271.255762,-12598.289136,-11884.817041
2994.191676,-4094.084839,-17022.773804,-10601.524951
2994.191921,-3778.050220,-22716.185352,-11525.686792
2994.192167,-2647.987036,-25732.879443,-10864.887134
2994.192412,-1216.254443,-24152.706348,-11439.495532
2994.192657,-387.860669,-19972.430249,-10879.252344
2994.192903,-225.054956,-16749.834814,-9270.348828
2994.193148,-507.570752,-14336.479541,-8757.989673
2994.193393,-928.950244,-10749.965454,-9332.598071
2994.193638,-1795.651245,-5262.455249,-10438.719238
2994.193884,-2901.772412,737.414111,-11554.417212
2994.194129,-3232.172241,5233.724829,-10577.582935
2994.194374,-2408.566870,4515.464331,-8662.221606
2994.194619,114.921680,-4012.681982,-7259.219434
2994.194865,1201.889233,-9045.293872,-6900.089185
2994.195110,234.631763,-5947.196924,-8365.340601
2994.195355,316.034619,3610.456104,-9284.714038
2994.195600,359.130249,18219.874634,-9437.942944
2994.195846,1321.599316,28356.924463,-6402.095239
2994.196091,4180.276099,26503.812378,-5837.063647
2994.196336,5401.318945,15552.733984,-5224.148022
2994.196582,5741.295581,2896.984009,-5597.643481
2994.196827,6248.866333,-2370.259644,-9217.676392
2994.197072,5884.947681,2844.311572,-7417.236743
2994.197317,5683.834741,10817.003101,-7240.065820
2994.197563,6224.924316,15351.621045,-5951.985327
2994.197808,6545.747339,16199.168433,-4558.559961
2994.198053,6799.532715,17123.330273,-8585.607153
2994.198298,6521.805322,20719.421167,-10079.588989
2994.198544,5544.971045,25469.517261,-11200.075366
2994.198789,4735.730884,29041.666138,-10860.098730
2994.199034,4232.948535,29731.196216,-7709.329346
2994.199279,3883.395093,26748.020947,-8542.511523
2994.199525,4046.200806,20939.687720,-10639.832178
2994.199770,4185.064502,16256.629272,-11765.106958
2994.200015,3639.186523,13977.349292,-13153.743921
2994.200261,2547.430566,11233.594189,-10716.446631
2994.200506,1019.929907,5152.321973,-8834.604126
2994.200751,-679.953271,-2408.566870,-9844.957227
2994.200996,-1857.900488,-7632.714893,-11568.782422
2994.201242,-2408.566870,-9346.963281,-14551.957690
2994.201487,-2992.752075,-8087.613208,-14413.093994
2994.201732,-3548.206860,-7517.793213,-11975.796704
2994.201977,-3792.415430,-11640.608472,-10386.046802
2994.202223,-4036.623999,-15054.740039,-11453.860742
2994.202468,-3873.818286,-10596.736548,-14733.917017
2994.202713,-4209.006519,-8154.650854,-15662.867261
2994.202959,-4793.191724,-7311.891870,-16021.997510
2994.203204,-4663.904834,-7441.178760,-11104.307300
2994.203449,-3811.569043,-11113.884106,-9466.673364
2994.203694,-3749.319800,-13824.120386,-10927.136377
2994.203940,-5204.994409,-13843.273999,-13421.894507
2994.204185,-6842.628345,-12301.408130,-17386.692456
2994.204430,-7685.387329,-9801.861597,-13771.447949
2994.204675,-7872.135059,-10568.006128,-9203.311182
2994.204921,-7153.874561,-17659.631445,-8020.575562
2994.205166,-5722.141968,-24957.158105,-6971.915234
2994.205411,-4592.078784,-29118.280591,-11061.211670
2994.205656,-3883.395093,-30099.903271,-12301.408130
2994.205902,-3854.664673,-29477.410840,-9959.878906
2994.206147,-3787.627026,-27198.130859,-6574.477759
2994.206392,-3141.192578,-23017.854761,-4960.785840
2994.206638,-2571.372583,-16314.090112,-6871.358765
2994.206883,-2049.436621,-8628.702783,-10860.098730
2994.207128,-1651.999146,-1331.176123,-11171.344946
2994.207373,-2145.204688,4821.922144,-8724.470850
2994.207619,-2882.618799,7273.584644,-6517.016919
2994.207864,-1939.303345,1651.999146,-4673.481641
2994.208109,181.959326,-7436.390356,-7556.100439
2994.208354,363.918652,-10007.762939,-10237.606299
2994.208600,727.837305,-4884.171387,-9375.693701
2994.208845,2063.801831,7627.926489,-7345.410693
2994.209090,3165.134595,21830.330737,-3998.316772
2994.209335,4855.440967,29510.929663,-3931.279126
2994.209581,6066.907007,26044.125659,-7417.236743
2994.209826,6722.918262,14676.456177,-8566.453540
2994.210071,7714.117749,3897.760303,-9533.711011
2994.210317,8355.763794,2834.734766,-7666.233716
2994.210562,9064.447485,11683.704102,-4333.505005
2994.210807,9859.322437,21576.545361,-5616.797095
2994.211052,9208.099585,26949.133887,-7398.083130
2994.211298,8341.398584,27648.240771,-10026.916553
2994.211543,7527.370020,27514.165479,-11856.086621
2994.211788,6938.396411,28974.628491,-10563.217725
2994.212033,7407.659937,31512.482251,-9481.038574
2994.212279,7364.564307,32561.142578,-9040.505469
2994.212524,6818.686328,29300.239917,-9576.806641
2994.212769,5501.875415,21811.177124,-12172.121240
2994.213015,4209.006519,14772.224243,-13034.033838
2994.213260,4041.412402,11319.785449,-12559.981909
2994.213505,3706.224170,10409.988818,-11597.512842
2994.213750,2523.488550,8939.948999,-9682.151514
2994.213996,1288.080493,5037.400293,-10491.391675
2994.214241,-81.402856,-1053.448730,-11439.495532
2994.214486,-1393.425366,-6239.289526,-13599.065430
2994.214731,-2245.761157,-7987.056738,-14489.708447
2994.214977,-2451.662500,-8523.357910,-12761.094849
2994.215222,-2126.051074,-12210.428467,-11238.382593
2994.215467,-2159.569897,-16979.678174,-10649.408984
2994.215712,-3418.919971,-15859.191797,-13474.566943
2994.215958,-4161.122485,-12703.634009,-14456.189624
2994.216203,-4793.191724,-11133.037720,-15236.699365
2994.216448,-4970.362646,-10395.623608,-13421.894507
2994.216694,-4735.730884,-11784.260571,-9859.322437
2994.216939,-4821.922144,-12737.152832,-10141.838232
2994.217184,-5458.779785,-11760.318555,-11611.878052
2994.217429,-7010.222461,-10697.293018,-14446.612817
2994.217675,-8283.937744,-10012.551343,-14676.456177
2994.217920,-8250.418921,-13172.897534,-10228.029492
2994.218165,-8169.016064,-22668.301318,-8705.317236
2994.218410,-7019.799268,-32072.725439,-6732.495068
2994.218656,-5851.428857,-36774.937500,-8604.760767
2994.218901,-5248.090039,-36540.305737,-11147.402930
2994.219146,-5094.861133,-33901.895508,-10515.333691
2994.219391,-5439.626172,-30157.364111,-7522.581616
2994.219637,-5396.530542,-25019.407349,-6066.907007
2994.219882,-4711.788867,-18607.735303,-6196.193896
2994.220127,-3758.896606,-10093.954199,-9006.986646
2994.220373,-2652.775439,-2250.549561,-11401.188306
2994.220618,-2681.505859,4209.006519,-9289.502441
2994.220863,-4807.556934,7977.479932,-7781.155396
2994.221108,-5535.394238,8695.740430,-6153.098267
2994.221354,-4932.055420,2734.178296,-7948.749512
2994.221599,-1154.005200,-8743.624463,-10117.896216
2994.221844,124.498486,-10807.426294,-10199.299072
2994.222089,881.066211,-5166.687183,-7249.642627
2994.222335,2896.984009,6746.860278,-3600.879297
2994.222580,2844.311572,23324.312573,-5276.820459
2994.222825,3069.366528,34505.234326,-5588.066675
2994.223070,5439.626172,31924.284937,-11817.779395
2994.223316,6248.866333,19895.815796,-9165.003955
2994.223561,8303.091357,6746.860278,-5999.869360
2994.223806,10285.490332,5181.052393,-6162.675073
2994.224052,9859.322437,14456.189624,-2638.410229
2994.224297,9509.768994,25282.769531,-9337.386475
2994.224542,8269.572534,30650.569653,-10467.449658
2994.224787,6809.109521,31100.679565,-10635.043774
2994.225033,7101.202124,31483.751831,-10960.655200
2994.225278,8346.186987,33791.762231,-8006.210352
2994.225523,9217.676392,36559.459351,-9744.400757
2994.225768,8643.067993,36080.619019,-11305.420239
2994.226014,6335.057593,30152.575708,-11022.904443
2994.226259,4060.566016,20609.287891,-13196.839551
2994.226504,3792.415430,11540.052002,-12119.448804
2994.226750,4898.536597,6397.306836,-10448.296045
2994.226995,5023.035083,5075.707520,-11405.976709
2994.227240,4084.508032,4879.382983,-10127.473022
2994.227485,1781.286035,2542.642163,-10711.658228
2994.227731,-272.938989,-2068.590234,-11971.008301
2994.227976,-330.399829,-5990.292554,-12411.541406
2994.228221,359.130249,-7129.932544,-13565.546606
2994.228466,1493.981836,-7292.738257,-12042.834351
2994.228712,871.489404,-7819.462622,-11511.321582
2994.228957,-3007.117285,-11291.055029,-11726.799731
2994.229202,-4630.386011,-16654.066748,-12799.402075
2994.229447,-2940.079639,-19503.166724,-14623.783740
2994.229693,-1350.329736,-20436.905371,-14049.175342
2994.229938,-1024.718311,-19713.856470,-12205.640063
2994.230183,-3078.943335,-16361.974146,-10113.107813
2994.230429,-5137.956763,-12588.712329,-10036.493359
2994.230674,-5837.063647,-11195.286963,-12717.999219
2994.230919,-6713.341455,-12263.100903,-13915.100049
2994.231164,-6684.611035,-16587.029102,-13814.543579
2994.231410,-6521.805322,-23630.770386,-11022.904443
2994.231655,-6880.935571,-30142.998901,-7354.987500
2994.231900,-6469.132886,-36138.079858,-7048.529687
2994.232145,-6315.903979,-40749.312256,-8360.552197
2994.232391,-6315.903979,-41309.555444,-11238.382593
2994.232636,-6358.999609,-36339.192798,-10625.466968
2994.232881,-6698.976245,-27485.435059,-8389.282617
2994.233126,-6718.129858,-17324.443213,-6794.744312
2994.233372,-6564.900952,-9078.812695,-6157.886670
2994.233617,-4855.440967,-3529.053247,-9246.406812
2994.233862,-4232.948535,464.475122,-10103.531006
2994.234108,-5683.834741,3313.575098,-10031.704956
2994.234353,-7972.691528,7034.164478,-8451.531860
2994.234598,-8212.111694,10098.742603,-7105.990527
2994.234843,-5827.486841,4079.719629,-9447.519751
2994.235089,-1335.964526,-5152.321973,-7709.329346
2994.235334,502.782349,-5999.869360,-9160.215552
2994.235579,914.585034,-1565.807886,-5444.414575
2994.235824,1340.752930,7053.318091,-4180.276099
2994.236070,584.185205,23290.793750,-6895.300781
2994.236315,2418.143677,33504.458032,-6095.637427
2994.236560,6162.675073,29573.178906,-11994.950317
2994.236805,6885.723975,18224.663037,-5415.684155
2994.237051,8441.955054,9313.444458,-4869.806177
2994.237296,7996.633545,11999.738721,-6124.367847
2994.237541,6794.744312,22687.454932,-4812.345337
2994.237787,7177.816577,32067.937036,-12387.599390
2994.238032,6938.396411,35467.703394,-10424.354028
2994.238277,7417.236743,34237.083740,-9184.157568
2994.238522,8604.760767,33116.597363,-8346.186987
2994.238768,8743.624463,34141.315674,-7287.949854
2994.239013,8355.763794,36051.888599,-11674.127295
2994.239258,7048.529687,34318.486597,-13244.723584
2994.239503,5803.544824,27609.933545,-12315.773340
2994.239749,5161.898779,17702.727075,-12200.851660
2994.239994,5219.359619,8896.853369,-9323.021265
2994.240239,5305.550879,5602.431885,-9964.667310
2994.240485,4692.635254,5971.138940,-12962.207788
2994.240730,3174.711401,4936.843823,-11999.738721
2994.240975,2188.300317,1503.558643,-13508.085767
2994.241220,1977.610571,1628.057129,-11870.451831
2994.241466,1666.364355,-3165.134595,-10117.896216
2994.241711,2662.352246,-6244.077930,-13608.642236
2994.241956,3739.742993,-10630.255371,-10922.347974
2994.242201,1206.677637,-15169.661719,-14456.189624
2994.242447,-2384.624854,-20001.160669,-14231.134668
2994.242692,-3222.595435,-22649.147705,-12277.466113
2994.242937,287.304199,-22141.576953,-14336.479541
2994.243182,909.796631,-20365.079321,-10860.098730
2994.243428,-28.730420,-20604.499487,-11923.124268
2994.243673,-3136.404175,-19689.914453,-12114.660400
2994.243918,-4759.672900,-15792.154150,-11449.072339
2994.244164,-5200.206006,-12028.469141,-14456.189624
2994.244409,-4501.099121,-13034.033838,-12263.100903
2994.244654,-3950.432739,-18708.291772,-10740.388647
2994.244899,-4745.307690,-27552.472705,-9739.612354
2994.245145,-6244.077930,-35395.877344,-7240.065820
2994.245390,-6847.416748,-40979.155615,-9270.348828
2994.245638,-7029.376074,-42971.131396,-10122.684619
2994.245886,-5932.831714,-40117.243018,-9950.302100
2994.246134,-5396.530542,-32412.702075,-8547.299927
2994.246382,-7125.144141,-22658.724512,-5889.736084
2994.246630,-8202.534888,-13819.331982,-6679.822632
2994.246878,-8451.531860,-5516.240625,-8949.525806
2994.247126,-7196.970190,378.283862,-10472.238062
2994.247375,-6023.811377,3562.572070,-10419.565625
2994.247623,-7469.909180,5846.640454,-7728.482959
2994.247871,-8192.958081,11999.738721,-5765.237598
2994.248119,-9457.096558,8216.900098,-7398.083130
2994.248367,-5477.933398,-1436.520996,-9844.957227
2994.248615,-1216.254443,-3280.056274,-8686.163623
2994.248863,-656.011255,-2063.801831,-8441.955054
2994.249111,378.283862,2207.453931,-2920.926025
2994.249359,234.631763,11990.161914,-3543.418457
2994.249607,919.373437,24578.874243,-6272.808350
2994.249855,3380.612744,29185.318237,-8939.948999
2994.250104,4783.614917,24933.216089,-10917.559570
2994.250352,6268.019946,17166.425903,-5425.260962
2994.250600,6497.863306,14982.913989,-3974.374756
2994.250848,6186.617090,21294.029565,-4232.948535
2994.251096,6263.231543,28146.234717,-8690.952026
2994.251344,5789.179614,33470.939209,-12310.984937
2994.251592,6770.802295,36382.288428,-12502.521069
2994.251840,7005.434058,37095.760522,-8418.013037
2994.252088,7441.178760,36090.195825,-6947.973218
2994.252336,8154.650854,34778.173315,-8604.760767
2994.252584,7287.949854,32848.446777,-11501.744775
2994.252832,6090.849023,28869.283618,-15916.652637
2994.253081,5492.298608,21859.061157,-13469.778540
2994.253329,5018.246680,13029.245435,-11401.188306
2994.253577,5382.165332,8331.821777,-9088.389502
2994.253825,4898.536597,5391.742139,-9361.328491
2994.254073,4999.093066,7876.923462,-14432.247607
2994.254321,3337.517114,7053.318091,-14111.424585
2994.254569,2753.331909,2643.198633,-14355.633154
2994.254817,3940.855933,-2264.914771,-11156.979736
2994.255065,3648.763330,-8106.766821,-8743.624463
2994.255313,4501.099121,-12071.564771,-12425.906616
2994.255561,3639.186523,-15820.884570,-12569.558716
2994.255809,-177.170923,-17405.846069,-17271.770776
2994.256058,-2518.700146,-19958.065039,-14580.688110
2994.256306,612.915625,-21973.982837,-11032.481250
2994.256554,2149.993091,-22189.460986,-11631.031665
2994.256802,1364.694946,-21997.924854,-8604.760767
2994.257050,-1345.541333,-20192.696802,-13484.143750
2994.257298,-3576.937280,-16874.333301,-14686.032983
2994.257546,-3964.797949,-14705.186597,-12856.862915
2994.257794,-3098.096948,-15447.389111,-12832.920898
2994.258042,-1843.535278,-19747.375293,-8255.207324
2994.258290,-2379.836450,-26910.826660,-8135.497241
2994.258538,-3912.125513,-32719.159888,-10180.145459
2994.258787,-5501.875415,-37651.215308,-9093.177905
2994.259035,-6627.150195,-40787.619482,-11037.269653
2994.259283,-5635.950708,-40524.257300,-9246.406812
2994.259531,-4218.583325,-35367.146924,-5961.562134
2994.259779,-5525.817432,-25680.207007,-6789.955908
2994.260027,-7685.387329,-16519.991455,-7043.741284
2994.260275,-10247.183105,-7398.083130,-9916.783276
2994.260523,-9662.997900,-1182.735620,-11803.414185
2994.260771,-7560.888843,2269.703174,-9064.447485
2994.261019,-7211.335400,4764.461304,-7948.749512
2994.261267,-7718.906152,7795.520605,-5449.202979
2994.261515,-8130.708838,13096.283081,-7254.431030
2994.261764,-8686.163623,6866.570361,-10759.542261
2994.262012,-5042.188696,-3969.586353,-9035.717065
2994.262260,-1810.016455,-2288.856787,-9773.131177
2994.262508,-392.649072,-2226.607544,-2657.563843
2994.262756,746.990918,4764.461304,-3801.992236
2994.263004,359.130249,18885.462695,-4194.641309
2994.263252,-239.420166,28280.310010,-8499.415894
2994.263500,1589.749902,27609.933545,-12445.060229
2994.263748,2896.984009,21543.026538,-5487.510205
2994.263996,5281.608862,16194.380029,-6181.828687
2994.264244,5841.852051,20499.154614,-2729.389893
2994.264492,5339.069702,29305.028320,-5693.411548
2994.264741,4429.273071,34299.332983,-12694.057202
2994.264989,4654.328027,35822.045239,-11037.269653
2994.265237,5966.350537,36683.957837,-11458.649146
2994.265485,7359.775903,36195.540698,-7149.086157
2994.265733,7982.268335,35424.607764,-6880.935571
2994.265981,7383.717920,33695.994165,-10783.484277
2994.266229,5650.315918,28553.248999,-13168.109131
2994.266477,4276.044165,19278.111768,-14571.111304
2994.266725,5827.486841,11659.762085,-13239.935181
2994.266973,6124.367847,12665.326782,-9610.325464
2994.267221,4587.290381,9260.772021,-8571.241943
2994.267470,4845.864160,8202.534888,-11927.912671
2994.267718,3548.206860,5674.257935,-12603.077539
2994.267966,2418.143677,2403.778467,-16347.608936
2994.268214,4774.038110,-2628.833423,-12315.773340
2994.268462,4467.580298,-5597.643481,-10788.272681
2994.268710,5549.759448,-9232.041602,-9773.131177
2994.268958,4754.884497,-13330.914844,-9950.302100
2994.269206,1077.390747,-17343.596826,-16366.762549
2994.269454,-1996.764185,-20360.290918,-16357.185742
2994.269702,1154.005200,-21222.203516,-14178.462231
2994.269950,3404.554761,-20192.696802,-12746.729639
2994.270198,2557.007373,-21404.162842,-6526.593726
2994.270447,-14.365210,-22424.092749,-10840.945117
2994.270695,-2413.355273,-21270.087549,-14058.752148
2994.270943,-3332.728711,-18243.816650,-15184.026929
2994.271191,-2130.839478,-17247.828760,-17051.504224
2994.271439,-411.802686,-19302.053784,-8063.671191
2994.271687,-871.489404,-26187.777759,-6799.532715
2994.271935,-2624.045020,-31823.728467,-7264.007837
2994.272183,-4209.006519,-35424.607764,-8911.218579
2994.272431,-5066.130713,-36870.705566,-14542.380884
2994.272679,-4687.846851,-38149.209253,-11827.356201
2994.272927,-3576.937280,-35477.280200,-6430.825659
2994.273175,-5128.379956,-28672.959082,-4242.525342
2994.273424,-7345.410693,-19258.958154,-4486.733911
2994.273672,-9524.134204,-9524.134204,-10568.006128
2994.273920,-9332.598071,-2140.416284,-14676.456177
2994.274168,-8058.882788,2863.465186,-11362.881079
2994.274416,-7838.616235,4323.928198,-7474.697583
2994.274664,-8216.900098,6708.553052,-3031.059302
2994.274912,-8192.958081,11219.228979,-5339.069702
2994.275160,-7086.836914,10845.733521,-11913.547461
2994.275408,-5262.455249,2695.871069,-12416.329810
2994.275656,-2628.833423,-1273.715283,-9897.629663
2994.275904,-1340.752930,-3610.456104,-3112.462158
2994.276153,-397.437476,-201.112939,430.956299
2994.276401,378.283862,13273.454004,-4577.713574
2994.276649,129.286890,25828.647510,-9557.653027
2994.276897,210.689746,29597.120923,-14082.694165
2994.277145,770.932935,24162.283154,-7479.485986
2994.277393,2676.717456,17755.399512,-1872.265698
2994.277641,3591.302490,19464.859497,-2734.178296
2994.277889,4127.603662,27427.974219,-4941.632227
2994.278137,3960.009546,34979.286255,-14762.647437
2994.278385,4204.218115,38110.902026,-13895.946436
2994.278633,4639.962817,37474.044385,-9284.714038
2994.278881,6167.463477,35970.485742,-6086.060620
2994.279130,7354.987500,34663.251636,-4204.218115
2994.279378,7594.407666,33849.223071,-11310.208643
2994.279626,6421.248853,29688.100586,-16021.997510
2994.279874,5114.014746,21279.664355,-14681.244580
2994.280122,4333.505005,12483.367456,-11927.912671
2994.280370,4333.505005,6842.628345,-6722.918262
2994.280618,5003.881470,5353.434912,-7862.558252
2994.280866,4735.730884,6646.303809,-13412.317700
2994.281114,3557.783667,8216.900098,-15844.826587
2994.281362,2288.856787,8202.534888,-16357.185742
2994.281610,2255.337964,1666.364355,-10496.180078
2994.281858,4539.406348,-5779.602808,-8389.282617
2994.282107,6244.077930,-12061.987964,-9069.235889
2994.282355,6162.675073,-16433.800195,-13278.242407
2994.282603,2657.563843,-18061.857324,-17290.924390
2994.282851,-2537.853760,-18262.970264,-16816.872461
2994.283099,1043.871924,-19503.166724,-11037.269653
2994.283347,4175.487695,-21830.330737,-10319.009155
2994.283595,4477.157104,-23104.046021,-7235.277417
2994.283843,1920.149731,-22313.959473,-12660.538379
2994.284091,-2437.297290,-19124.882861,-16491.261035
2994.284339,-3433.285181,-16831.237671,-13646.949463
2994.284587,-1987.187378,-18875.885889,-14245.499878
2994.284836,852.335791,-23491.906689,-6521.805322
2994.285084,1503.558643,-29242.779077,-8020.575562
2994.285332,-1259.350073,-31244.331665,-9380.482104
2994.285580,-4276.044165,-31273.062085,-10644.620581
2994.285828,-5841.852051,-32427.067285,-13412.317700
2994.286076,-5051.765503,-34873.941382,-9773.131177
2994.286324,-2829.946362,-35750.219189,-6766.013892
2994.286572,-2944.868042,-30516.494360,-4975.151050
2994.286820,-6378.153223,-20638.018311,-6981.492041
2994.287068,-9447.519751,-10017.339746,-10548.852515
2994.287316,-10558.429321,-1422.155786,-12895.170142
2994.287564,-8719.682446,2806.004346,-10524.910498
2994.287813,-7407.659937,4031.835596,-7225.700610
2994.288061,-6971.915234,6550.535742,-5008.669873
2994.288309,-6871.358765,10888.829150,-7173.028174
2994.288557,-7479.485986,8590.395557,-10730.811841
2994.288805,-5798.756421,2015.917798,-10745.177051
2994.289053,-3418.919971,-627.280835,-9768.342773
2994.289301,-842.758984,-3447.650391,-2935.291235
2994.289549,-23.942017,2015.917798,-3960.009546
2994.289797,790.086548,14887.145923,-3830.722656
2994.290045,-948.103857,25809.493896,-8882.488159
2994.290293,-770.932935,28213.272363,-12435.483423
2994.290542,148.440503,23286.005347,-5573.701465
2994.290790,2643.198633,17094.599854,-5726.930371
2994.291038,3519.476440,20178.331592,-3160.346191
2994.291286,3840.299463,28174.965137,-5923.254907
2994.291534,2466.027710,35415.030957,-13038.822241
2994.291782,2935.291235,37785.290601,-11314.997046
2994.292030,4477.157104,37512.351611,-10745.177051
2994.292278,6210.559106,36066.253809,-7220.912207
2994.292526,7417.236743,35209.129614,-5803.544824
2994.292774,7000.645654,33255.461060,-11061.211670
2994.293022,5597.643481,27988.217407,-12957.419385
2994.293270,4721.365674,19886.238989,-13919.888452
2994.293519,4400.542651,11008.539233,-12445.060229
2994.293767,4434.061475,3064.578125,-8020.575562
2994.294015,5880.159277,5473.144995,-10295.067139
2994.294263,3485.957617,10323.797559,-10912.771167
2994.294511,1723.825195,9792.284790,-13977.349292
2994.294759,1905.784521,5688.623145,-15567.099194
2994.295007,3236.960645,-612.915625,-11042.058057
2994.295255,5042.188696,-5257.666846,-11061.211670
2994.295503,5683.834741,-10524.910498,-8734.047656
2994.295751,4290.409375,-13187.262744,-12808.978882
2994.295999,560.243188,-15188.815332,-15428.235498
2994.296247,-1958.456958,-17530.344556,-15260.641382
2994.296496,2676.717456,-21073.763013,-14183.250635
2994.296744,4462.791895,-24056.938281,-11099.518896
2994.296992,3653.551733,-23013.066357,-7177.816577
2994.297240,933.738647,-19709.068066,-12674.903589
2994.297488,-2542.642163,-17717.092285,-12655.749976
2994.297736,-2245.761157,-18966.865552,-15931.017847
2994.297984,-603.338818,-21950.040820,-14676.456177
2994.298232,1197.100830,-25819.070703,-7034.164478
2994.298480,1053.448730,-29688.100586,-9375.693701
2994.298728,-1312.022510,-30166.940918,-6052.541797
2994.298976,-3912.125513,-30454.245117,-11156.979736
2994.299225,-4999.093066,-32326.510815,-14068.328955
2994.299473,-3849.876270,-34893.094995,-10022.128149
2994.299721,-2351.106030,-34112.585254,-8738.836060
2994.299969,-3567.360474,-28668.170679,-3653.551733
2994.300217,-6200.982300,-18957.288745,-5817.910034
2994.300465,-8983.044629,-8753.201270,-11080.365283
2994.300713,-9452.308154,-1910.572925,-12579.135522
2994.300961,-7101.202124,1398.213770,-12148.179224
2994.301209,-7110.778931,4271.255762,-7522.581616
2994.301457,-6876.147168,7244.854224,-3792.415430
2994.301705,-7134.720947,7335.833887,-6976.703638
2994.301953,-6268.019946,1920.149731,-9696.516724
2994.302202,-3725.377783,1776.497632,-12196.063257
2994.302450,-2279.279980,4132.392065,-9548.076221
2994.302698,-1446.097803,790.086548,-3347.093921
2994.302946,-153.228906,5295.974072,-2149.993091
2994.303194,234.631763,17587.805396,-3620.032910
2994.303442,-402.225879,24837.448022,-10702.081421
2994.303690,134.075293,26479.870361,-11305.420239
2994.303938,928.950244,20939.687720,-7508.216406
2994.304186,2025.494604,17822.437158,-4812.345337
2994.304434,2968.810059,20393.809741,-641.646045
2994.304682,2916.137622,27811.046484,-8097.190015
2994.304930,2384.624854,35055.900708,-12301.408130
2994.305179,2552.218970,39509.115796,-12957.419385
2994.305427,4084.508032,39877.822852,-11176.133350
2994.305675,5430.049365,36109.349438,-4616.020801
2994.305923,6129.156250,32714.371484,-6129.156250
2994.306171,6066.907007,30784.644946,-10524.910498
2994.306419,4955.997437,26752.809351,-13910.311646
2994.306667,3892.971899,19819.201343,-16074.669946
2994.306915,3749.319800,10477.026465,-11046.846460
2994.307163,3404.554761,2480.392920,-6947.973218
2994.307411,4529.829541,2255.337964,-9677.363110
2994.307659,3629.609717,10472.238062,-11971.008301
2994.307908,1589.749902,10242.394702,-15365.986255
2994.308156,1929.726538,6205.770703,-17032.350610
2994.308404,2475.604517,-1278.503687,-9083.601099
2994.308652,3658.340137,-6335.057593,-10405.200415
2994.308900,5449.202979,-10553.640918,-8427.589844
2994.309148,3691.858960,-11674.127295,-13623.007446
2994.309396,248.996973,-12823.344092,-18559.851270
2994.309644,-1211.466040,-16357.185742,-13086.706274
2994.309892,2451.662500,-21686.678638,-13302.184424
2994.310140,3567.360474,-25550.920117,-8566.453540
2994.310388,3169.922998,-23975.535425,-8044.517578
2994.310636,1125.274780,-18698.714966,-15102.624072
2994.310885,-1350.329736,-16591.817505,-13278.242407
2994.311133,-1900.996118,-19278.111768,-15289.371802
2994.311381,-454.898315,-24100.033911,-11501.744775
2994.311629,1240.196460,-28040.889844,-6627.150195
2994.311877,1312.022510,-29702.465796,-10232.817896
2994.312125,76.614453,-28988.993701,-8604.760767
2994.312373,-2619.256616,-29352.912354,-11741.164941
2994.312621,-4290.409375,-33188.423413,-12090.718384
2994.312869,-3122.038965,-36583.401367,-7460.332373
2994.313117,-2317.587207,-34294.544580,-7647.080103
2994.313365,-2925.714429,-26278.757422,-6258.443140
2994.313613,-5564.124658,-16261.417676,-8226.476904
2994.313862,-8561.665137,-7565.677246,-11319.785449
2994.314110,-8829.815723,-1886.630908,-10247.183105
2994.314358,-7718.906152,1350.329736,-9624.690674
2994.314606,-6569.689355,3912.125513,-7800.309009
2994.314854,-6531.382129,8274.360937,-6507.440112
2994.315102,-6560.112549,6904.877588,-9615.113867
2994.315350,-5109.226343,2987.963672,-8537.723120
2994.315598,-4223.371729,3016.694092,-9710.881934
2994.315846,-2930.502832,-742.202515,-6885.723975
2994.316094,411.802686,-4.788403,-4343.081812
2994.316342,790.086548,9835.380420,-6062.118604
2994.316591,-632.069238,20934.899316,-5219.359619
2994.316839,-464.475122,27020.959937,-10443.507642
2994.317087,-1283.292090,24550.143823,-7623.138086
2994.317335,1058.237134,17424.999683,-6799.532715
2994.317583,2997.540479,15040.374829,-5477.933398
2994.317831,2643.198633,20815.189233,-5070.919116
2994.318079,1498.770239,30267.497388,-9217.676392
2994.318327,972.045874,37521.928418,-10467.449658
2994.318575,2082.955444,39906.553271,-11147.402930
2994.318823,4659.116431,37799.655811,-9246.406812
2994.319071,6172.251880,35415.030957,-7594.407666
2994.319319,6296.750366,34165.257690,-8839.392529
2994.319568,5008.669873,31469.386621,-10462.661255
2994.319816,3878.606689,26125.528516,-12703.634009
2994.320064,4170.699292,17463.306909,-12665.326782
2994.320312,4266.467358,7407.659937,-10754.753857
2994.320560,4232.948535,2279.279980,-10596.736548
2994.320808,4098.873242,5621.585498,-10266.336719
2994.321056,1766.920825,9356.540088,-11544.840405
2994.321304,397.437476,8518.569507,-14772.224243
2994.321552,1623.268726,4055.777612,-12445.060229
2994.321800,3232.172241,-1565.807886,-12526.463086
2994.322048,4606.443994,-6129.156250,-10582.371338
2994.322297,4826.710547,-8930.372192,-9782.707983
2994.322545,2815.581152,-11099.518896,-13608.642236
2994.322793,-1197.100830,-13599.065430,-14379.575171
2994.323041,-536.301172,-18052.280518,-14633.360547
2994.323289,3414.131567,-22917.298291,-13876.792822
2994.323537,4218.583325,-24990.676929,-9643.844287
2994.323785,2753.331909,-22658.724512,-9481.038574
2994.324033,-95.768066,-19062.633618,-11918.335864
2994.324281,-1819.593262,-17515.979346,-12617.442749
2994.324529,-1517.923853,-20106.505542,-15892.710620
2994.324777,263.362183,-24018.631055,-11578.359229
2994.325025,1465.251416,-27676.971191,-9270.348828
2994.325274,766.144531,-29439.103613,-8030.152368
2994.325522,-924.161841,-28682.535889,-7340.622290
2994.325770,-2983.175269,-29242.779077,-11305.420239
2994.326018,-3687.070557,-32929.849634,-11947.066284
2994.326266,-2590.526196,-35798.103223,-10285.490332
2994.326514,-2145.204688,-33815.704248,-7378.929517
2994.326762,-3878.606689,-25617.957764,-5458.779785
2994.327010,-6435.614062,-15308.525415,-7580.042456
2994.327258,-8092.401611,-6100.425830,-10505.756885
2994.327506,-7465.120776,-756.567725,-12220.005273
2994.327754,-6742.071875,1747.767212,-10577.582935
2994.328002,-6933.608008,4697.423657,-7024.587671
2994.328251,-6794.744312,7532.158423,-6181.828687
2994.328499,-5774.814404,4735.730884,-7910.442285
2994.328747,-3811.569043,493.205542,-9107.543115
2994.328995,-1819.593262,1838.746875,-10927.136377
2994.329243,-976.834277,3308.786694,-6268.019946
2994.329491,-679.953271,2116.474268,-4663.904834
2994.329739,411.802686,12832.920898,-3830.722656
2994.329987,210.689746,23084.892407,-5889.736084
2994.330235,119.710083,26484.658765,-11875.240234
2994.330483,962.469067,22505.495605,-6694.187842
2994.330731,1106.121167,16376.339355,-7795.520605
2994.330980,1853.112085,15318.102222,-3825.934253
2994.331228,1637.633936,22285.229053,-3883.395093
2994.331476,1412.578979,30990.546289,-11405.976709
2994.331724,1235.408057,37143.644556,-10831.368311
2994.331972,3031.059302,40332.721167,-12109.871997
2994.332220,4750.096094,38752.548071,-8619.125977
2994.332468,5932.831714,34524.387939,-5679.046338
2994.332716,5923.254907,32470.162915,-9481.038574
2994.332964,5214.571216,29630.639746,-11051.634863
2994.333212,4414.907861,24712.949536,-14499.285254
2994.333460,3643.974927,16275.782886,-13651.737866
2994.333708,3040.636108,4793.191724,-8762.778076
2994.333957,3883.395093,2580.949390,-9983.820923
2994.334205,2949.656445,8025.363965,-10117.896216
2994.334453,579.396802,8667.010010,-12531.251489
2994.334701,421.379492,7331.045483,-16931.794141
2994.334949,287.304199,1814.804858,-11444.283936
2994.335197,1824.381665,-2806.004346,-12421.118213
2994.335445,4146.757275,-6315.903979,-8705.317236
2994.335693,4180.276099,-7843.404639,-11008.539233
2994.335941,2116.474268,-9840.168823,-15567.099194
2994.336189,-1647.210742,-13081.917871,-14202.404248
2994.336437,-47.884033,-18411.410767,-14982.913989
2994.336685,2997.540479,-23630.770386,-11851.298218
2994.336934,3720.589380,-24425.645337,-8384.494214
2994.337182,2667.140649,-20872.650073,-11750.741748
2994.337430,378.283862,-18363.526733,-11540.052002
2994.337678,-1436.520996,-18569.428076,-14044.386938
2994.337926,-1302.445703,-22275.652246,-14408.305591
2994.338174,-177.170923,-25905.261963,-9275.137231
2994.338422,1240.196460,-28534.095386,-10443.507642
2994.338670,1302.445703,-29060.819751,-7398.083130
2994.338918,-483.628735,-28390.443286,-9270.348828
2994.339166,-2542.642163,-29659.370166,-11099.518896
2994.339414,-3308.786694,-33092.655347,-9682.151514
2994.339663,-2475.604517,-34979.286255,-9849.745630
2994.339911,-2011.129395,-31780.632837,-6885.723975
2994.340159,-3509.899634,-22749.704175,-6794.744312
2994.340407,-6153.098267,-13129.801904,-8595.183960
2994.340655,-7206.546997,-5875.370874,-9370.905298
2994.340903,-6962.338428,-718.260498,-10874.463940
2994.341151,-6119.579443,1422.155786,-9346.963281
2994.341399,-6105.214233,4922.478613,-7556.100439
2994.341647,-5827.486841,5999.869360,-8398.859424
2994.341895,-4237.736938,2944.868042,-7714.117749
2994.342143,-3083.731738,282.515796,-7852.981445
2994.342391,-2284.068384,-2188.300317,-9011.775049
2994.342640,593.762012,1752.555615,-5803.544824
2994.342888,296.881006,9782.707983,-6210.559106
2994.343136,-627.280835,21341.913599,-5951.985327
2994.343384,57.460840,27332.206152,-6445.190869
2994.343632,-656.011255,24966.734912,-9888.052856
2994.343880,641.646045,16256.629272,-6153.098267
2994.344128,2073.378638,10582.371338,-6579.266162
2994.344376,1470.039819,15370.774658,-6813.897925
2994.344624,804.451758,26226.084985,-6153.098267
2994.344872,507.570752,35041.535498,-10089.165796
2994.345120,962.469067,37957.673120,-10644.620581
2994.345368,2858.676782,36846.763550,-9284.714038
2994.345617,4759.672900,36257.789941,-10242.394702
2994.345865,5415.684155,35860.352466,-8547.299927
2994.346113,5161.898779,34352.005420,-9725.247144
2994.346361,4338.293408,29319.393530,-11745.953345
2994.346609,4141.968872,21566.968555,-11013.327637
2994.346855,3701.435767,12531.251489,-12464.213843
2994.347100,3572.148877,6976.703638,-11468.225952
2994.347346,3323.151904,5932.831714,-10012.551343
2994.347592,2240.972754,5185.840796,-11583.147632
2994.347838,469.263525,3758.896606,-12143.390820
2994.348084,33.518823,6751.648682,-13747.505933
2994.348329,57.460840,1599.326709,-12516.886279
2994.348575,1848.323682,-1762.132422,-13364.433667
2994.348821,4381.389038,-4228.160132,-9811.438403
2994.349067,3203.441821,-7407.659937,-12315.773340
2994.349313,421.379492,-11018.116040,-13010.091821
2994.349558,-2806.004346,-14398.728784,-14015.656519
2994.349804,995.987891,-18349.161523,-16141.707593
2994.350050,3763.685010,-21480.777295,-10874.463940
2994.350296,4132.392065,-23726.538452,-10831.368311
2994.350542,1982.398975,-23381.773413,-9682.151514
2994.350787,-239.420166,-20566.192261,-10821.791504
2994.351033,-1316.810913,-18440.141187,-14882.357520
2994.351279,-205.901343,-21724.985864,-13460.201733
2994.351525,1106.121167,-26479.870361,-11295.843433
2994.351770,1810.016455,-30004.135205,-8872.911353
2994.352016,751.779321,-29554.025293,-5985.504150
2994.352262,-1086.967554,-27676.971191,-9701.305127
2994.352508,-2509.123340,-29214.048657,-10802.637891
2994.352754,-2341.529224,-33514.034839,-11573.570825
2994.352999,-2552.218970,-34452.561890,-10022.128149
2994.353245,-2849.099976,-30976.181079,-5257.666846
2994.353491,-4525.041138,-21274.875952,-6971.915234
2994.353737,-6478.709692,-10702.081421,-8269.572534
2994.353983,-6545.747339,-2925.714429,-10601.524951
2994.354228,-6574.477759,1436.520996,-11889.605444
2994.354474,-6971.915234,1838.746875,-8413.224634
2994.354720,-6789.955908,3725.377783,-6924.031201
2994.354966,-5746.083984,3960.009546,-8207.323291
2994.355211,-3576.937280,608.127222,-7211.335400
2994.355457,-1680.729565,-272.938989,-9749.189160
2994.355703,-1498.770239,1608.903516,-8049.305981
2994.355949,-833.182178,2600.103003,-4769.249707
2994.356195,-387.860669,11750.741748,-6943.184814
2994.356440,411.802686,21844.695947,-4405.331055
2994.356686,1125.274780,25823.859106,-9859.322437
2994.356932,1369.483350,22390.573926,-7829.039429
2994.357178,1158.793604,14887.145923,-5889.736084
2994.357424,2106.897461,11880.028638,-7225.700610
2994.357669,1455.674609,18909.404712,-4295.197778
2994.357915,1431.732593,29113.492188,-9643.844287
2994.358161,943.315454,36080.619019,-10199.299072
2994.358407,1613.691919,38570.588745,-10041.281763
2994.358652,3227.383838,38086.960010,-9706.093530
2994.358898,4218.583325,35424.607764,-7350.199097
2994.359144,4999.093066,34251.448950,-10012.551343
2994.359390,5070.919116,32106.244263,-10726.023438
2994.359636,4458.003491,27552.472705,-11846.509814
2994.359881,4103.661646,20178.331592,-12152.967627
2994.360127,3529.053247,11247.959399,-9878.476050
2994.360373,3466.804004,6488.286499,-10395.623608
2994.360619,3098.096948,4486.733911,-11089.942090
2994.360865,2379.836450,4443.638281,-12713.210815
2994.361110,699.106885,9279.925635,-13608.642236
2994.361356,-718.260498,4247.313745,-11573.570825
2994.361602,205.901343,-809.240161,-12837.709302
2994.361848,2475.604517,-4098.873242,-10333.374365
2994.362093,3241.749048,-4606.443994,-12579.135522
2994.362339,2916.137622,-7019.799268,-13139.378711
2994.362585,-1795.651245,-10141.838232,-13546.392993
2994.362831,-2331.952417,-14642.937354,-14504.073657
2994.363077,1058.237134,-19704.279663,-12229.582080
2994.363322,3696.647363,-23151.930054,-12368.445776
2994.363568,3356.670728,-24052.149878,-11008.539233
2994.363814,938.527051,-21820.753931,-11314.997046
2994.364060,-646.434448,-17918.205225,-12114.660400
2994.364306,-1292.868896,-18952.500342,-12813.767285
2994.364551,100.556470,-23501.483496,-11544.840405
2994.364797,1292.868896,-27763.162451,-11549.628809
2994.365043,1355.118140,-29372.065967,-8939.948999
2994.365289,-153.228906,-27873.295728,-9126.696729
2994.365535,-1580.173096,-27700.913208,-8767.566479
2994.365780,-2686.294263,-31924.284937,-9169.792358
2994.366026,-2494.758130,-35582.625073,-11066.000073
2994.366272,-1977.610571,-34557.906763,-8101.978418
2994.366518,-2959.233252,-27887.660938,-8456.320264
2994.366763,-5133.168359,-18023.550098,-7675.810522
2994.367009,-6191.405493,-9136.273535,-7824.251025
2994.367255,-6813.897925,-1805.228052,-10682.927808
2994.367501,-5664.681128,263.362183,-9504.980591
2994.367747,-5453.991382,2475.604517,-9136.273535
2994.367992,-6287.173560,4970.362646,-9040.505469
2994.368238,-5468.356592,2657.563843,-6995.857251
2994.368484,-2983.175269,-1484.405029,-8063.671191
2994.368730,-1723.825195,-134.075293,-8279.149341
2994.368976,43.095630,3203.441821,-6358.999609
2994.369221,244.208569,6828.263135,-7340.622290
2994.369467,-225.054956,14384.363574,-5204.994409
2994.369713,493.205542,22625.205688,-6110.002637
2994.369959,1096.544360,24023.419458,-9064.447485
2994.370204,1154.005200,19531.897144,-5827.486841
2994.370450,2274.491577,13273.454004,-8092.401611
2994.370696,2164.358301,14183.250635,-6426.037256
2994.370942,1403.002173,21571.756958,-5521.029028
2994.371188,732.625708,30320.169824,-9979.032520
2994.371433,402.225879,35563.471460,-8767.566479
2994.371679,1675.941162,38144.420850,-10649.408984
2994.371925,3634.398120,38115.690430,-9974.244116
2994.372171,4812.345337,35731.065576,-8058.882788
2994.372417,4893.748193,33150.116187,-10113.107813
2994.372662,4113.238452,29922.732349,-10189.722266
2994.372908,3691.858960,25708.937427,-11650.185278
2994.373154,3567.360474,19340.361011,-12789.825269
2994.373400,3509.899634,11156.979736,-10658.985791
2994.373645,3409.343164,6325.480786,-10888.829150
2994.373891,2738.966699,5497.087012,-11042.058057
2994.374137,1503.558643,6540.958936,-11688.492505
2994.374383,172.382520,4946.420630,-13297.396021
2994.374629,579.396802,4.788403,-12957.419385
2994.374874,1580.173096,239.420166,-13469.778540
2994.375120,1699.883179,-1584.961499,-10295.067139
2994.375366,2992.752075,-3169.922998,-11932.701074
2994.375612,1814.804858,-7321.468677,-12526.463086
2994.375858,-1824.381665,-12526.463086,-14010.868115
2994.376103,-359.130249,-17099.388257,-15083.470459
2994.376349,1388.636963,-20853.496460,-12258.312500
2994.376595,2715.024683,-22558.168042,-12464.213843
2994.376841,2020.706201,-22294.805859,-9217.676392
2994.377086,268.150586,-20982.783350,-11314.997046
2994.377332,-167.594116,-19958.065039,-13057.975854
2994.377578,-397.437476,-21973.982837,-12904.746948
2994.377824,454.898315,-24272.416431,-12354.080566
2994.378070,871.489404,-26834.212207,-10232.817896
2994.378315,861.912598,-28289.886816,-7742.848169
2994.378561,512.359155,-27796.681274,-9504.980591
2994.378807,-957.680664,-28380.866479,-9241.618408
2994.379053,-1752.555615,-31919.496533,-10524.910498
2994.379299,-2422.932080,-34399.889453,-10706.869824
2994.379544,-3069.366528,-33365.594336,-6593.631372
2994.379790,-3830.722656,-26106.374902,-7862.558252
2994.380036,-5683.834741,-16505.626245,-7718.906152
2994.380282,-6378.153223,-7790.732202,-9533.711011
2994.380527,-5928.043311,-1728.613599,-11233.594189
2994.380773,-6023.811377,995.987891,-8173.804468
2994.381019,-6856.993555,3323.151904,-8269.572534
2994.381265,-7125.144141,4625.597607,-7900.865479
2994.381511,-4979.939453,521.935962,-8552.088330
2994.381756,-2035.071411,-1651.999146,-9050.082275
2994.382002,-632.069238,2628.833423,-8461.108667
2994.382248,-1058.237134,708.683691,-4936.843823
2994.382494,229.843359,6019.022974,-5755.660791
2994.382740,277.727393,16467.319019,-5650.315918
2994.382985,158.017310,23678.654419,-8063.671191
2994.383231,1948.880151,25483.882471,-10299.855542
2994.383477,1685.517969,19527.108740,-5396.530542
2994.383723,2691.082666,14020.444922,-6943.184814
2994.383969,2331.952417,15600.618018,-3438.073584
2994.384214,1268.926880,23084.892407,-7824.251025
2994.384460,569.819995,31775.844434,-11573.570825
2994.384706,933.738647,37138.856152,-10151.415039
2994.384952,1920.149731,38968.026221,-10965.443604
2994.385197,3452.438794,36492.421704,-6947.973218
2994.385443,4280.832568,33916.260718,-7426.813550
2994.385689,4587.290381,31948.226953,-11401.188306
2994.385935,3543.418457,29022.512524,-11769.895361
2994.386181,2983.175269,24104.822314,-13776.236353
2994.386426,3375.824341,16376.339355,-11267.113013
2994.386672,3366.247534,8681.375220,-8475.473877
2994.386918,3672.705347,5937.620117,-10874.463940
2994.387164,3150.769385,5118.803149,-11271.901416
2994.387410,2188.300317,6426.037256,-14312.537524
2994.387655,861.912598,8868.122949,-14484.920044
2994.387901,-469.263525,3337.517114,-10668.562598
2994.388147,1513.135449,-1383.848560,-11947.066284
2994.388393,3931.279126,-4869.806177,-9792.284790
2994.388638,3797.203833,-5856.217261,-13493.720557
2994.388884,1211.466040,-7905.653882,-14542.380884
2994.389130,-2863.465186,-11123.460913,-13977.349292
2994.389376,-1398.213770,-16692.373975,-13541.604590
2994.389622,1450.886206,-21634.006201,-10702.081421
2994.389867,3031.059302,-24487.894580,-11391.611499
2994.390113,1450.886206,-24133.552734,-12052.411157
2994.390359,-493.205542,-20843.919653,-12205.640063
2994.390605,-1460.463013,-17942.147241,-13148.955518
2994.390851,-1254.561670,-20647.595117,-11473.014355
2994.391096,483.628735,-25689.783813,-10074.800586
2994.391342,1881.842505,-29453.468823,-10682.927808
2994.391588,1517.923853,-29103.915381,-8935.160596
2994.391834,90.979663,-26877.307837,-10486.603271
2994.392079,-1340.752930,-27710.490015,-8939.948999
2994.392325,-2226.607544,-32609.026611,-8781.931689
2994.392571,-2111.685864,-36032.734985,-9346.963281
2994.392817,-1896.207715,-32431.855688,-7489.062793
2994.393063,-3442.861987,-23218.967700,-9303.867651
2994.393308,-5640.739111,-13474.566943,-8571.241943
2994.393554,-6976.703638,-5578.489868,-8695.740430
2994.393800,-6387.730029,-1709.459985,-9543.287817
2994.394046,-6440.402466,1115.697974,-8427.589844
2994.394292,-6473.921289,3356.670728,-9078.812695
2994.394537,-6277.596753,3643.974927,-9586.383447
2994.394783,-4472.368701,694.318481,-7484.274390
2994.395029,-2269.703174,-210.689746,-7043.741284
2994.395275,-1781.286035,-1000.776294,-6722.918262
2994.395520,-76.614453,679.953271,-5204.994409
2994.395766,1192.312427,9768.342773,-8389.282617
2994.396012,282.515796,20513.519824,-6124.367847
2994.396258,1072.602344,25881.319946,-8192.958081
2994.396504,1805.228052,23501.483496,-7196.970190
2994.396749,2284.068384,16989.254980,-4577.713574
2994.396995,3811.569043,12325.350146,-7762.001782
2994.397241,3074.154932,17166.425903,-6440.402466
2994.397487,1733.402002,26906.038257,-9150.638745
2994.397733,909.796631,34869.152979,-9624.690674
2994.397978,632.069238,37727.829761,-8815.450513
2994.398224,2159.569897,37234.624219,-9222.464795
2994.398470,3524.264844,35319.262891,-9107.543115
2994.398716,4141.968872,33882.741895,-10706.869824
2994.398962,3433.285181,31636.980737,-11171.344946
2994.399207,2403.778467,27657.817578,-10850.521924
2994.399453,2346.317627,21514.296118,-10922.347974
2994.399699,2916.137622,13623.007446,-10735.600244
2994.399945,3452.438794,7967.903125,-11458.649146
2994.400190,3184.288208,6454.767676,-12334.926953
2994.400436,2298.433594,7445.967163,-12320.561743
2994.400682,1063.025537,7536.946826,-12109.871997
2994.400928,220.266553,1403.002173,-11367.669482
2994.401174,2413.355273,895.431421,-13488.932153
2994.401419,2398.990063,-493.205542,-12162.544434
2994.401665,3145.980981,-2236.184351,-12966.996191
2994.401911,3078.943335,-3825.934253,-12650.961572
2994.402157,-881.066211,-8394.071021,-12258.312500
2994.402403,-1996.764185,-13948.618872,-14231.134668
2994.402648,9.576807,-19335.572607,-12416.329810
2994.402894,2126.051074,-21878.214771,-14638.148950
2994.403140,2011.129395,-23161.506860,-10994.174023
2994.403386,47.884033,-22615.628882,-10309.432349
2994.403631,-919.373437,-20575.769067,-11875.240234
2994.403877,-1235.408057,-20791.247217,-11607.089648
2994.404123,-407.014282,-22112.846533,-13187.262744
2994.404369,775.721338,-24985.888525,-12512.097876
2994.404615,842.758984,-27533.319092,-8647.856396
2994.404860,823.605371,-27514.165479,-8738.836060
2994.405106,143.652100,-27451.916235,-7857.769849
2994.405352,-833.182178,-30502.129150,-9016.563452
2994.405598,-1000.776294,-34107.796851,-12143.390820
2994.405844,-1541.865869,-34749.442896,-8149.862451
2994.406089,-2844.311572,-30320.169824,-8370.129004
2994.406335,-4304.774585,-21514.296118,-7220.912207
2994.406581,-6181.828687,-11693.280908,-7196.970190
2994.406827,-5770.026001,-4778.826514,-11013.327637
2994.407072,-5396.530542,-1024.718311,-9390.058911
2994.407318,-6651.092212,2250.549561,-9117.119922
2994.407564,-7173.028174,4893.748193,-8609.549170
2994.407810,-6397.306836,5750.872388,-7335.833887
2994.408056,-4759.672900,4.788403,-8173.804468
2994.408301,-2121.262671,-5923.254907,-8427.589844
2994.408547,143.652100,-1714.248389,-7206.546997
2994.408793,354.341846,4347.870215,-6258.443140
2994.409039,-440.533105,14599.841724,-5956.773730
2994.409285,-268.150586,24037.784668,-5497.087012
2994.409530,991.199487,25704.149023,-9481.038574
2994.409776,2767.697119,19431.340674,-7211.335400
2994.410022,3734.954590,12943.054175,-6454.767676
2994.410268,3730.166187,12775.460059,-7110.778931
2994.410513,2030.283008,21428.104858,-4553.771558
2994.410759,1551.442676,31569.943091,-9390.058911
2994.411005,1422.155786,35075.054321,-9979.032520
2994.411251,1412.578979,35151.668774,-10314.220752
2994.411497,2877.830396,36133.291455,-10682.927808
2994.411742,3916.913916,35960.908936,-7594.407666
2994.411988,3921.702319,34955.344238,-9816.226807
2994.412234,3471.592407,30937.873853,-10472.238062
2994.412480,2920.926025,25019.407349,-11104.307300
2994.412726,2940.079639,17970.877661,-13034.033838
2994.412971,2868.253589,11932.701074,-11070.788477
2994.413217,3107.673755,8355.763794,-10524.910498
2994.413463,2758.120312,5765.237598,-11032.481250
2994.413709,2576.160986,7125.144141,-11894.393848
2994.413954,991.199487,8930.372192,-13043.610645
2994.414200,196.324536,3749.319800,-13144.167114
2994.414446,1551.442676,-373.495459,-13278.242407
2994.414692,2863.465186,-3605.667700,-11109.095703
2994.414938,3960.009546,-3538.630054,-11827.356201
2994.415183,2365.471240,-5966.350537,-11932.701074
2994.415429,-1666.364355,-9112.331519,-14891.934326
2994.415675,-1757.344019,-13986.926099,-14097.059375
2994.415921,292.092603,-18981.230762,-13421.894507
2994.416167,2566.584180,-23041.796777,-11836.933008
2994.416412,1733.402002,-24593.239453,-9835.380420
2994.416658,-751.779321,-22141.576953,-11367.669482
2994.416904,-1455.674609,-18760.964209,-12344.503760
2994.417150,-1695.094775,-19560.627563,-13211.204761
2994.417396,-344.765039,-23396.138623,-12095.506787
2994.417641,804.451758,-26992.229517,-10108.319409
2994.417887,636.857642,-27921.179761,-7977.479932
2994.418133,215.478149,-26886.884644,-9246.406812
2994.418379,-311.246216,-27054.478760,-9088.389502
2994.418624,-1355.118140,-31277.850488,-10625.466968
2994.418870,-1838.746875,-35793.314819,-10184.933862
2994.419116,-1800.439648,-35098.996338,-7144.297754
2994.419362,-2940.079639,-28246.791187,-8374.917407
2994.419608,-4649.539624,-18171.990601,-7513.004810
2994.419853,-6014.234570,-8772.354883,-9442.731348
2994.420099,-6301.538770,-3433.285181,-10802.637891
2994.420345,-5870.582471,-914.585034,-8599.972363
2994.420591,-6789.955908,2705.447876,-8499.415894
2994.420837,-7125.144141,5473.144995,-8121.132031
2994.421082,-5712.565161,3711.012573,-8504.204297
2994.421328,-3241.749048,1867.477295,-8183.381274
2994.421574,-2619.256616,-5075.707520,-7541.735229
2994.421820,-253.785376,-2039.859814,-6718.129858
2994.422065,1288.080493,5123.591553,-4788.403320
2994.422311,-383.072266,16060.304736,-7072.471704
2994.422557,1182.735620,25819.070703,-6708.553052
2994.422803,1924.938135,25656.264990,-8494.627490
2994.423049,2284.068384,18918.981519,-7522.581616
2994.423294,3811.569043,11951.854687,-4678.270044
2994.423540,3993.528369,13273.454004,-7077.260107
2994.423786,2566.584180,22941.240308,-6636.727002
2994.424032,2116.474268,32905.907617,-8757.989673
2994.424278,967.257471,37134.067749,-10826.579907
2994.424523,1244.984863,35759.795996,-8916.006982
2994.424769,2873.041992,35367.146924,-9083.601099
2994.425015,4060.566016,35324.051294,-9476.250171
2994.425261,4319.139795,34122.162061,-9998.186133
2994.425506,3687.070557,30334.535034,-11549.628809
2994.425752,2767.697119,24013.842651,-10994.174023
2994.425998,2753.331909,16218.322046,-11233.594189
2994.426244,2997.540479,9677.363110,-11200.075366
2994.426490,3567.360474,6651.092212,-11094.730493
2994.426735,3505.111230,6560.112549,-11496.956372
2994.426981,2245.761157,6861.781958,-12205.640063
2994.427227,81.402856,8422.801440,-12401.964600
2994.427473,-62.249243,3414.131567,-11774.683765
2994.427719,1546.654272,-1340.752930,-13895.946436
2994.427964,3241.749048,-4333.505005,-11573.570825
2994.428210,3481.169214,-4611.232397,-12464.213843
2994.428456,1134.851587,-6517.016919,-13077.129468
2994.428702,-3213.018628,-10242.394702,-12406.753003
2994.428947,-1584.961499,-15418.658691,-14748.282227
2994.429193,1206.677637,-19632.453613,-13010.091821
2994.429439,2978.386865,-22969.970728,-12334.926953
2994.429685,1628.057129,-23554.155933,-11281.478223
2994.429931,-770.932935,-21155.165869,-10122.684619
2994.430176,-1666.364355,-18559.851270,-12488.155859
2994.430422,-1048.660327,-20432.116968,-12938.265771
2994.430668,526.724365,-24708.161133,-12205.640063
2994.430914,1043.871924,-28208.483960,-11224.017383
2994.431160,656.011255,-28328.194043,-7800.309009
2994.431405,-248.996973,-26757.597754,-8346.186987
2994.431651,-1015.141504,-27849.353711,-8791.508496
2994.431897,-1608.903516,-32676.064258,-10213.664282
2994.432143,-1786.074438,-35798.103223,-11032.481250
2994.432388,-2126.051074,-33806.127441,-7977.479932
2994.432634,-3318.363501,-25292.346338,-7934.384302
2994.432880,-5439.626172,-14853.627100,-7134.720947
2994.433126,-6090.849023,-6928.819604,-8868.122949
2994.433372,-5904.101294,-2178.723511,-10975.020410
2994.433617,-5655.104321,138.863696,-9337.386475
2994.433863,-6718.129858,2762.908716,-9069.235889
2994.434109,-6804.321118,5061.342310,-8365.340601
2994.434355,-5281.608862,3859.453076,-6952.761621
2994.434601,-3078.943335,-2753.331909,-8063.671191
2994.434846,-1403.002173,-4908.113403,-7738.059766
2994.435092,593.762012,263.362183,-6268.019946
2994.435338,95.768066,8714.894043,-6799.532715
2994.435584,4.788403,20183.119995,-5568.913062
2994.435830,1091.755957,26427.197925,-6449.979272
2994.436075,1671.152759,23889.344165,-9112.331519
2994.436321,3380.612744,15868.768604,-5568.913062
2994.436567,3974.374756,11075.576880,-7455.543970
2994.436813,3332.728711,15696.386084,-6833.051538
2994.437058,2274.491577,26671.406494,-5683.834741
2994.437304,1436.520996,35089.419531,-10319.009155
2994.437550,1034.295117,35951.332129,-9040.505469
2994.437796,1886.630908,35127.726758,-10093.954199
2994.438042,3150.769385,36128.503052,-10271.125122
2994.438287,3983.951562,35601.778687,-8537.723120
2994.438533,3567.360474,33322.498706,-10855.310327
2994.438779,2806.004346,28289.886816,-10160.991846
2994.439025,2777.273926,21629.217798,-11147.402930
2994.439271,2901.772412,14255.076685,-12842.497705
2994.439516,3351.882324,9040.505469,-10975.020410
2994.439762,3514.688037,7153.874561,-11281.478223
2994.440008,2801.215942,5310.339282,-11252.747803
2994.440254,1546.654272,4932.055420,-11880.028638
2994.440499,1326.387720,7388.506323,-12741.941235
2994.440745,1067.813940,3801.992236,-13555.969800
2994.440991,2092.532251,-986.411084,-13364.433667
2994.441237,3840.299463,-3792.415430,-10740.388647
2994.441483,2954.444849,-5032.611890,-12330.138550
2994.441728,-253.785376,-7704.540942,-12559.981909
2994.441974,-2844.311572,-11889.605444,-14417.882397
2994.442220,-727.837305,-16290.148096,-15318.102222
2994.442466,1546.654272,-20422.540161,-12023.680737
2994.442712,2217.030737,-23467.964673,-11420.341919
2994.442957,215.478149,-23894.132568,-9964.667310
2994.443203,-1460.463013,-21485.565698,-10855.310327
2994.443449,-1651.999146,-18617.312109,-14288.595508
2994.443695,-732.625708,-20283.676465,-12674.903589
2994.443940,565.031592,-25057.714575,-11276.689819
2994.444186,1225.831250,-28649.017065,-9145.850342
2994.444432,790.086548,-28356.924463,-6789.955908
2994.444678,-43.095630,-26752.809351,-9816.226807
2994.444924,-861.912598,-29123.068994,-10146.626636
2994.445169,-1240.196460,-34328.063403,-10893.617554
2994.445415,-1987.187378,-36205.117505,-9275.137231
2994.445661,-2604.891406,-31483.751831,-6200.982300
2994.445907,-4223.371729,-21595.698975,-7656.656909
2994.446153,-5544.971045,-11908.759058,-8350.975391
2994.446398,-6100.425830,-4759.672900,-10472.238062
2994.446644,-6181.828687,-775.721338,-10668.562598
2994.446890,-6402.095239,790.086548,-8159.439258
2994.447138,-7489.062793,5061.342310,-8015.787158
2994.447386,-6804.321118,6804.321118,-7556.100439
2994.447634,-4807.556934,-1896.207715,-8303.091357
2994.447882,-2020.706201,-7656.656909,-8250.418921
2994.448130,-656.011255,-3624.821313,-7613.561279
2994.448378,158.017310,3246.537451,-5468.356592
2994.448626,-387.860669,14154.520215,-5770.026001
2994.448874,-23.942017,23721.750049,-5846.640454
2994.449122,1900.996118,25512.612891,-8944.737402
2994.449370,2796.427539,19512.743530,-7824.251025
2994.449618,3600.879297,12540.828296,-6057.330200
2994.449866,3821.145850,12215.216870,-7235.277417
2994.450114,2839.523169,21092.916626,-4769.249707
2994.450362,2715.024683,31110.256372,-8925.583789
2994.450610,1872.265698,34562.695166,-9844.957227
2994.450858,1369.483350,34217.930127,-9849.745630
2994.451106,2624.045020,35726.277173,-10726.023438
2994.451354,3495.534424,37181.951782,-8149.862451
2994.451602,3859.453076,35649.662720,-10218.452686
2994.451850,4122.815259,30961.815869,-10548.852515
2994.452098,2882.618799,24554.932227,-10759.542261
2994.452347,2461.239307,18444.929590,-12852.074512
2994.452595,2868.253589,11956.643091,-11214.440576
2994.452843,3471.592407,9753.977563,-10922.347974
2994.453091,2978.386865,5650.315918,-10687.716211
2994.453339,3011.905688,8537.723120,-11932.701074
2994.453587,301.669409,8781.931689,-11789.048975
2994.453835,-124.498486,4563.348364,-13594.277026
2994.454083,2432.508887,-162.805713,-12823.344092
2994.454331,2523.488550,-3936.067529,-11755.530151
2994.454579,4113.238452,-3825.934253,-12124.237207
2994.454827,2020.706201,-4812.345337,-10529.698901
2994.455075,-1781.286035,-7541.735229,-15447.389111
2994.455323,-2145.204688,-12593.500732,-13302.184424
2994.455571,478.840332,-17875.109595,-14317.325928
2994.455819,2303.221997,-21667.525024,-12555.193506
2994.456067,1944.091748,-24037.784668,-9753.977563
2994.456315,-957.680664,-22093.692920,-11463.437549
2994.456563,-1857.900488,-19546.262354,-11827.356201
2994.456811,-1666.364355,-19608.511597,-13383.587280
2994.457059,-330.399829,-23075.315601,-12966.996191
2994.457307,488.417139,-26436.774731,-9993.397729
2994.457555,158.017310,-27495.011865,-8418.013037
2994.457803,-354.341846,-26053.702466,-9021.351855
2994.458051,-430.956299,-26240.450195,-8844.180933
2994.458299,-1268.926880,-30875.624609,-11324.573853
2994.458547,-1637.633936,-36066.253809,-10117.896216
2994.458795,-1503.558643,-36013.581372,-7738.059766
2994.459043,-2719.813086,-28845.341602,-7690.175732
2994.459291,-4165.910889,-18895.039502,-6938.396411
2994.459539,-6004.657764,-9892.841260,-9782.707983
2994.459787,-6038.176587,-3945.644336,-10797.849487
2994.460035,-5305.550879,-1206.677637,-9217.676392
2994.460283,-6536.170532,1896.207715,-8614.337573
2994.460531,-6564.900952,4740.519287,-7120.355737
2994.460779,-6277.596753,4951.209033,-8686.163623
2994.461027,-4055.777612,124.498486,-8097.190015
2994.461275,-2398.990063,-6631.938599,-8422.801440
2994.461524,-656.011255,-2571.372583,-7206.546997
2994.461772,981.622681,4774.038110,-4879.382983
2994.462020,-158.017310,15758.635327,-6670.245825
2994.462268,847.547388,25862.166333,-5583.278271
2994.462516,1623.268726,26144.682129,-9428.366138
2994.462764,2370.259644,18593.370093,-7546.523633
2994.463012,3462.015601,11286.266626,-5109.226343
2994.463260,4362.235425,12368.445776,-7718.906152
2994.463508,2992.752075,22333.113086,-4845.864160
2994.463756,2576.160986,32417.490479,-8973.467822
2994.464004,1666.364355,36042.311792,-10362.104785
2994.464252,1417.367383,35022.381885,-9246.406812
2994.464500,2729.389893,35702.335156,-10405.200415
2994.464748,4003.105176,35692.758350,-8461.108667
2994.464996,4170.699292,34505.234326,-9959.878906
2994.465244,3701.435767,30463.821924,-10802.637891
2994.465492,2772.485522,24004.265845,-10424.354028
2994.465740,2351.106030,16778.565234,-12310.984937
2994.465988,2724.601489,10448.296045,-11267.113013
2994.466236,3394.977954,7383.717920,-10802.637891
2994.466484,3083.731738,6971.915234,-11880.028638
2994.466732,2250.549561,5104.437939,-10807.426294
2994.466980,1340.752930,9236.830005,-13110.648291
2994.467228,-62.249243,4295.197778,-12129.025610
2994.467476,1455.674609,-114.921680,-13460.201733
2994.467724,3859.453076,-3596.090894,-12061.987964
2994.467972,3265.691064,-4673.481641,-11774.683765
2994.468220,2121.262671,-6004.657764,-12555.193506
2994.468468,-2738.966699,-9102.754712,-13158.532324
2994.468716,-1857.900488,-14030.021729,-14954.183569
2994.468964,785.298145,-18703.503369,-13239.935181
2994.469212,2317.587207,-22716.185352,-12291.831323
2994.469460,895.431421,-24406.491724,-10903.194360
2994.469708,-1268.926880,-22802.376611,-10682.927808
2994.469956,-2159.569897,-19302.053784,-12516.886279
2994.470204,-1556.231079,-19838.354956,-13402.740894
2994.470452,-229.843359,-23453.599463,-11669.338892
2994.470700,794.874951,-27265.168506,-11022.904443
2994.470949,507.570752,-27638.663965,-7943.961108
2994.471197,-220.266553,-25862.166333,-8805.873706
2994.471445,-521.935962,-26499.023975,-9682.151514
2994.471693,-866.701001,-31814.151660,-9825.803613
2994.471941,-1335.964526,-36813.244727,-10424.354028
2994.472189,-1680.729565,-35194.764404,-7436.390356
2994.472437,-3145.980981,-26446.351538,-7671.022119
2994.472685,-4979.939453,-15662.867261,-7953.537915
2994.472933,-5937.620117,-7632.714893,-9179.369165
2994.473181,-6172.251880,-2341.529224,-10472.238062
2994.473429,-5635.950708,-646.434448,-9088.389502
2994.473677,-7058.106494,2791.639136,-8106.766821
2994.473925,-7378.929517,5209.782812,-8212.111694
2994.474173,-5937.620117,4400.542651,-8537.723120
2994.474421,-3371.035937,574.608398,-7852.981445
2994.474669,-2600.103003,-5286.397266,-8020.575562
2994.474917,-71.826050,-2183.511914,-6009.446167
2994.475165,761.356128,6023.811377,-6004.657764
2994.475413,-196.324536,17525.556152,-6703.764648
2994.475661,1446.097803,26393.679102,-6512.228516
2994.475909,1872.265698,24894.908862,-9356.540088
2994.476157,2997.540479,17420.211279,-6239.289526
2994.476405,4189.852905,11458.649146,-5420.472559
2994.476653,4228.160132,14480.131641,-7383.717920
2994.476901,2997.540479,24985.888525,-6052.541797
2994.477149,2600.103003,34241.872144,-9988.609326
2994.477397,1321.599316,37114.914136,-9830.592017
2994.477645,1786.074438,35683.181543,-8963.891016
2994.477893,3040.636108,35170.822388,-9739.612354
2994.478141,4074.931226,34782.961719,-9265.560425
2994.478389,4046.200806,33605.014502,-10362.104785
2994.478637,3016.694092,29199.683447,-11324.573853
2994.478885,2331.952417,21772.869897,-10639.832178
2994.479133,1982.398975,13723.563916,-11769.895361
2994.479381,3093.308545,8307.879761,-11348.515869
2994.479629,3538.630054,5616.797095,-11075.576880
2994.479877,3299.209888,9533.711011,-13168.109131
2994.480126,1374.271753,9950.302100,-10453.084448
2994.480374,263.362183,6971.915234,-13134.590308
2994.480622,1383.848560,1091.755957,-12382.810986
2994.480870,2432.508887,-4189.852905,-12334.926953
2994.481118,4304.774585,-4869.806177,-13718.775513
2994.481366,3438.073584,-3801.992236,-10907.982764
2994.481614,114.921680,-5329.492896,-13603.853833
2994.481862,-2724.601489,-10745.177051,-12526.463086
2994.482110,-861.912598,-16907.852124,-13824.120386
2994.482358,1742.978809,-20829.554443,-14451.401221
2994.482606,2485.181323,-23343.466187,-11233.594189
2994.482854,335.188232,-22021.866870,-11511.321582
2994.483102,-1747.767212,-19737.798486,-10199.299072
2994.483350,-2092.532251,-19517.531934,-11535.263599
2994.483598,-861.912598,-22002.713257,-13670.891479
2994.483846,435.744702,-25665.841797,-11621.454858
2994.484094,641.646045,-27260.380103,-10879.252344
2994.484342,162.805713,-26331.429858,-8231.265308
2994.484590,-723.048901,-26005.818433,-7283.161450
2994.484838,-1216.254443,-28945.898071,-9643.844287
2994.485086,-1249.773267,-34246.660547,-10170.568652
2994.485334,-1364.694946,-36305.673975,-10429.142432
2994.485582,-2106.897461,-32091.879053,-8322.244971
2994.485830,-3792.415430,-22974.759131,-6531.382129
2994.486078,-5956.773730,-12689.268799,-7460.332373
2994.486326,-6066.907007,-6263.231543,-9313.444458
2994.486574,-5463.568188,-1776.497632,-10606.313354
2994.486822,-5717.353564,833.182178,-10117.896216
2994.487070,-6713.341455,4079.719629,-7833.827832
2994.487318,-7091.625317,4003.105176,-7647.080103
2994.487566,-4774.038110,-311.246216,-7445.967163
2994.487814,-2288.856787,-1738.190405,-7762.001782
2994.488062,-876.277808,435.744702,-8686.163623
2994.488310,-196.324536,1067.813940,-6019.022974
2994.488558,-129.286890,9495.403784,-6042.964990
2994.488806,62.249243,19982.007056,-5248.090039
2994.489054,713.472095,25239.673901,-7402.871533
2994.489303,2466.027710,22471.976782,-8614.337573
2994.489551,3078.943335,15624.560034,-6895.300781
2994.489799,4074.931226,12191.274854,-7168.239771
2994.490047,3418.919971,17022.773804,-4462.791895
2994.490295,2466.027710,26364.948682,-7781.155396
2994.490543,1877.054102,34107.796851,-9701.305127
2994.490791,2006.340991,37665.580518,-10381.258398
2994.491039,2676.717456,38307.226562,-11046.846460
2994.491287,3758.896606,35501.222217,-8212.111694
2994.491535,4098.873242,33092.655347,-9016.563452
2994.491783,3696.647363,31234.754858,-10060.435376
2994.492031,2729.389893,27744.008838,-11262.324609
2994.492279,2398.990063,21341.913599,-12947.842578
2994.492527,2786.850732,13211.204761,-11578.359229
2994.492775,2868.253589,7297.526660,-10515.333691
2994.493023,2834.734766,4745.307690,-10266.336719
2994.493271,2973.598462,5736.507178,-11525.686792
2994.493519,1632.845532,10065.223779,-13278.242407
2994.493767,114.921680,6560.112549,-13096.283081
2994.494015,1130.063184,828.393774,-13402.740894
2994.494263,2839.523169,-4577.713574,-11109.095703
2994.494511,3687.070557,-5372.588525,-12004.527124
2994.494759,3318.363501,-4975.151050,-12095.506787
2994.495007,-1110.909570,-6440.402466,-14250.288281
2994.495255,-2609.679810,-11233.594189,-14748.282227
2994.495503,-646.434448,-17535.132959,-13038.822241
2994.495751,1637.633936,-22050.597290,-12737.152832
2994.495999,1819.593262,-23831.883325,-10539.275708
2994.496247,-215.478149,-22199.037793,-11607.089648
2994.496495,-1752.555615,-18871.097485,-12176.909644
2994.496743,-1987.187378,-19105.729248,-12861.651318
2994.496991,-1067.813940,-22946.028711,-12138.602417
2994.497239,344.765039,-27155.035229,-10773.907471
2994.497487,775.721338,-28285.098413,-9198.522778
2994.497735,416.591089,-26125.528516,-9418.789331
2994.497983,-119.710083,-25589.227344,-8944.737402
2994.498231,-1015.141504,-29984.981592,-9184.157568
2994.498480,-1470.039819,-35889.082886,-10242.394702
2994.498728,-1628.057129,-36387.076831,-7618.349683
2994.498976,-2073.378638,-29764.715039,-8791.508496
2994.499224,-3797.203833,-18918.981519,-7939.172705
2994.499472,-5688.623145,-10098.742603,-8360.552197
2994.499720,-6057.330200,-4309.562988,-10060.435376
2994.499968,-6153.098267,-1091.755957,-8489.839087
2994.500216,-6062.118604,1690.306372,-9203.311182
2994.500464,-7153.874561,4338.293408,-9069.235889
2994.500712,-6517.016919,3145.980981,-8317.456567
2994.500960,-4261.678955,-1546.654272,-8025.363965
2994.501208,-2456.450903,-3303.998291,-7335.833887
2994.501456,-684.741675,1379.060156,-6186.617090
2994.501704,244.208569,7781.155396,-6244.077930
2994.501952,-737.414111,11918.335864,-6382.941626
2994.502200,727.837305,20293.253271,-6636.727002
2994.502448,1977.610571,22615.628882,-8384.494214
2994.502696,2355.894434,18775.329419,-6722.918262
2994.502944,4151.545679,14628.572144,-5770.026001
2994.503192,4017.470386,15212.757349,-7302.315063
2994.503440,3548.206860,21825.542334,-5726.930371
2994.503688,2518.700146,29443.892017,-8710.105640
2994.503936,1853.112085,33964.144751,-10280.701929
2994.504184,1556.231079,36870.705566,-9442.731348
2994.504432,3064.578125,38905.776978,-10180.145459
2994.504680,4089.296436,37316.027075,-8882.488159
2994.504928,3888.183496,32355.241235,-9552.864624
2994.505176,3011.905688,28074.408667,-10898.405957
2994.505424,2054.225024,24052.149878,-11109.095703
2994.505672,1891.419312,18698.714966,-12459.425439
2994.505920,2647.987036,12052.411157,-11616.666455
2994.506168,3390.189551,7024.587671,-10093.954199
2994.506416,2758.120312,4917.690210,-11286.266626
2994.506664,1934.514941,4390.965845,-11362.881079
2994.506912,1187.524023,4448.426685,-13302.184424
2994.507160,1709.459985,7742.848169,-13972.560889
2994.507408,1455.674609,2499.546533,-11894.393848
2994.507656,2724.601489,-1982.398975,-12947.842578
2994.507905,4271.255762,-4687.846851,-9653.421094
2994.508153,1637.633936,-7096.413721,-14068.328955
2994.508401,-1144.428394,-9758.765967,-14312.537524
2994.508649,-1690.306372,-13742.717529,-13646.949463
2994.508897,574.608398,-17875.109595,-15035.586426
2994.509145,1608.903516,-22012.290063,-9088.389502
2994.509393,962.469067,-24377.761304,-11765.106958
2994.509641,-1197.100830,-22831.107031,-11233.594189
2994.509889,-1810.016455,-20072.986719,-12727.576025
2994.510137,-1513.135449,-18756.175806,-14336.479541
2994.510385,-670.376465,-22055.385693,-10457.872852
2994.510633,292.092603,-26513.389185,-9730.035547
2994.510881,732.625708,-28332.982446,-8542.511523
2994.511129,450.109912,-27116.728003,-8791.508496
2994.511377,-373.495459,-27246.014893,-10783.484277
2994.511625,-952.892261,-31301.792505,-9926.360083
2994.511873,-1522.712256,-35716.700366,-8647.856396
2994.512121,-2341.529224,-35089.419531,-7445.967163
2994.512369,-2734.178296,-27155.035229,-7019.799268
2994.512617,-4544.194751,-15763.423730,-9265.560425
2994.512865,-5688.623145,-7058.106494,-9950.302100
2994.513113,-5947.196924,-1982.398975,-9725.247144
2994.513361,-6430.825659,-119.710083,-8508.992700
2994.513609,-7053.318091,2600.103003,-7220.912207
2994.513857,-7019.799268,6574.477759,-9160.215552
2994.514105,-5477.933398,5372.588525,-9184.157568
2994.514353,-3825.934253,-5750.872388,-7747.636572
2994.514601,-1513.135449,-6220.135913,-8145.074048
2994.514849,-86.191260,-1005.564697,-3581.725684
2994.515097,-526.724365,7714.117749,-7474.697583
2994.515345,-43.095630,19426.552271,-6397.306836
2994.515593,656.011255,26034.548853,-7575.254053
2994.515841,2169.146704,23147.141650,-10256.759912
2994.516089,2365.471240,14901.511133,-3064.578125
2994.516337,4232.948535,10271.125122,-7206.546997
2994.516585,3519.476440,15614.983228,-6272.808350
2994.516833,3222.595435,26590.003638,-6770.802295
2994.517082,2643.198633,34198.776514,-12148.179224
2994.517330,1537.077466,34198.776514,-7671.022119
2994.517578,1900.996118,34845.210962,-9605.537061
2994.517826,3605.667700,36650.439014,-9217.676392
2994.518074,4209.006519,36731.841870,-8283.937744
2994.518322,4060.566016,34016.817187,-13024.457031
2994.518570,3208.230225,27557.261108,-9907.206470
2994.518818,1977.610571,18296.489087,-10486.603271
2994.519066,2509.123340,12210.428467,-12205.640063
2994.519314,3596.090894,12780.248462,-10261.548315
2994.519562,2777.273926,10826.579907,-11980.585107
2994.519810,2432.508887,8925.583789,-12727.576025
2994.520058,1671.152759,5343.858105,-10204.087476
2994.520306,47.884033,2829.946362,-13632.584253
2994.520554,1872.265698,-23.942017,-11592.724438
2994.520802,2446.874097,-1130.063184,-13244.723584
2994.521050,3495.534424,-1651.999146,-13546.392993
2994.521298,3481.169214,-2466.027710,-9744.400757
2994.521546,196.324536,-6272.808350,-14192.827441
2994.521794,-2322.375610,-12009.315527,-12923.900562
2994.522042,-430.956299,-16098.611963,-14125.789795
2994.522290,1584.961499,-17415.422876,-15160.084912
2994.522538,2312.798804,-20743.363184,-10333.374365
2994.522786,43.095630,-22874.202661,-10984.597217
2994.523034,-1963.245361,-22835.895435,-10548.852515
2994.523282,-1838.746875,-21499.930908,-12119.448804
2994.523530,-1039.083521,-21538.238135,-14810.531470
2994.523778,368.707056,-23535.002319,-11224.017383
2994.524026,287.304199,-26211.719775,-9811.438403
2994.524274,-517.147559,-26944.345483,-8006.210352
2994.524522,-651.222852,-26590.003638,-7340.622290
2994.524770,-588.973608,-28400.020093,-10912.771167
2994.525018,-651.222852,-32762.255518,-10946.289990
2994.525266,-1436.520996,-35166.033984,-9212.887988
2994.525514,-2542.642163,-32858.023584,-7254.431030
2994.525762,-4290.409375,-24875.755249,-5937.620117
2994.526010,-5626.373901,-14566.322900,-8418.013037
2994.526259,-5453.991382,-6186.617090,-10998.962427
2994.526507,-5018.246680,-957.680664,-10663.774194
2994.526755,-5817.910034,1340.752930,-8916.006982
2994.527003,-7273.584644,3299.209888,-6646.303809
2994.527251,-7182.604980,4003.105176,-7565.677246
2994.527499,-4970.362646,526.724365,-9107.543115
2994.527747,-1584.961499,-2504.334937,-9409.212524
2994.527995,-876.277808,-866.701001,-8135.497241
2994.528243,316.034619,4414.907861,-4735.730884
2994.528491,-277.727393,11750.741748,-4285.620972
2994.528739,-1388.636963,18320.431104,-5640.739111
2994.528987,1321.599316,23669.077612,-9188.945972
2994.529235,2791.639136,21294.029565,-9907.206470
2994.529483,2264.914771,15169.661719,-6234.501123
2994.529731,3265.691064,12387.599390,-4936.843823
2994.529979,2284.068384,17386.692456,-4127.603662
2994.530227,2169.146704,25823.859106,-7762.001782
2994.530475,2346.317627,32666.487451,-11281.478223
2994.530723,2135.627881,35587.413477,-11578.359229
2994.530971,2513.911743,37560.235645,-9739.612354
2994.531219,4022.258789,37694.310937,-6995.857251
2994.531467,4855.440967,35362.358521,-7714.117749
2994.531715,4932.055420,31105.467969,-10989.385620
2994.531963,4132.392065,26374.525488,-12746.729639
2994.532211,2954.444849,20810.400830,-13129.801904
2994.532459,2456.450903,14159.308618,-11276.689819
2994.532707,2686.294263,8336.610181,-8647.856396
2994.532955,2925.714429,6186.617090,-10113.107813
2994.533203,2600.103003,6177.040283,-12215.216870
2994.533451,943.315454,4194.641309,-13785.813159
2994.533699,488.417139,3667.916943,-14475.343237
2994.533947,-14.365210,3404.554761,-11654.973682
2994.534195,694.318481,-928.950244,-10807.426294
2994.534443,3055.001318,-2801.215942,-11449.072339
2994.534691,3256.114258,-5674.257935,-12717.999219
2994.534939,19.153613,-8935.160596,-16270.994482
2994.535187,-1656.787549,-13254.300391,-13297.396021
2994.535436,-919.373437,-16682.797168,-13886.369629
2994.535684,1493.981836,-20063.409912,-11214.440576
2994.535932,2193.088721,-22385.785522,-9763.554370
2994.536180,761.356128,-22333.113086,-13685.256689
2994.536428,-660.799658,-21562.180151,-11583.147632
2994.536676,-1675.941162,-20508.731421,-13340.491650
2994.536924,-1398.213770,-21523.872925,-11932.701074
2994.537172,-541.089575,-25014.618945,-8796.296899
2994.537420,363.918652,-27193.342456,-10697.293018
2994.537668,656.011255,-26963.499097,-9466.673364
2994.537916,-272.938989,-26609.157251,-9208.099585
2994.538164,-1177.947217,-29515.718066,-10414.777222
2994.538412,-2130.839478,-33389.536353,-7685.387329
2994.538660,-2250.549561,-35678.393140,-8145.074048
2994.538908,-2810.792749,-30564.378394,-8667.010010
2994.539156,-3974.374756,-20853.496460,-8355.763794
2994.539404,-5568.913062,-10194.510669,-10079.588989
2994.539652,-6066.907007,-3691.858960,-8911.218579
2994.539900,-5726.930371,335.188232,-7685.387329
2994.540148,-6564.900952,1982.398975,-8451.531860
2994.540396,-6761.225488,4271.255762,-8777.143286
2994.540644,-5995.080957,1862.688892,-9945.513696
2994.540892,-3275.267871,-1575.384692,-9289.502441
2994.541140,-1656.787549,-2466.027710,-6105.214233
2994.541388,-253.785376,2231.395947,-5449.202979
2994.541636,172.382520,5755.660791,-5209.782812
2994.541884,-426.167896,12612.654346,-6521.805322
2994.542132,1130.063184,21361.067212,-8724.470850
2994.542380,1565.807886,23429.657446,-8973.467822
2994.542628,2068.590234,19570.204370,-5578.489868
2994.542876,3083.731738,13838.485596,-4922.478613
2994.543124,3452.438794,13718.775513,-5913.678101
2994.543372,2777.273926,20293.253271,-6847.416748
2994.543620,2140.416284,28874.072021,-10946.289990
2994.543868,1326.387720,34447.773486,-10352.527979
2994.544116,1527.500659,37311.238672,-8532.934717
2994.544364,3136.404175,38800.432104,-8432.378247
2994.544612,4596.867188,36286.520361,-8298.302954
2994.544861,4525.041138,32197.223926,-11099.518896
2994.545109,3936.067529,28864.495215,-12928.688965
2994.545357,2801.215942,24564.509033,-11204.863770
2994.545605,2461.239307,18593.370093,-11247.959399
2994.545853,3256.114258,11568.782422,-9682.151514
2994.546101,3696.647363,6540.958936,-10041.281763
2994.546349,3155.557788,5741.295581,-13081.917871
2994.546597,1709.459985,5861.005664,-12368.445776
2994.546845,272.938989,5612.008691,-13311.761230
2994.547093,33.518823,2403.778467,-11956.643091
2994.547341,1647.210742,-143.652100,-11458.649146
2994.547589,2657.563843,-1067.813940,-12478.579053
2994.547837,3016.694092,-3332.728711,-12004.527124
2994.548085,1537.077466,-4960.785840,-14614.206934
2994.548330,-1987.187378,-9404.424121,-13077.129468
2994.548575,-1728.613599,-14331.691138,-13412.317700
2994.548821,1072.602344,-19450.494287,-12339.715356
2994.549066,2365.471240,-22007.501660,-12239.158887
2994.549311,1369.483350,-22347.478296,-12018.892334
2994.549557,-972.045874,-21217.415112,-11367.669482
2994.549802,-1570.596289,-20341.137305,-12406.753003
2994.550047,-1177.947217,-21758.504688,-11611.878052
2994.550292,-225.054956,-24162.283154,-11123.460913
2994.550538,665.588062,-26087.221289,-11295.843433
2994.550783,454.898315,-26958.710693,-9069.235889
2994.551028,-71.826050,-25665.841797,-9423.577734
2994.551273,-622.492432,-26446.351538,-8762.778076
2994.551519,-1288.080493,-31081.525952,-8896.853369
2994.551764,-1786.074438,-35108.573145,-10117.896216
2994.552009,-1881.842505,-34141.315674,-7891.288672
2994.552255,-3236.960645,-26436.774731,-8288.726147
2994.552500,-5157.110376,-16955.736157,-8753.201270
2994.552745,-6248.866333,-8226.476904,-8025.363965
2994.552990,-5348.646509,-2619.256616,-10132.261426
2994.553236,-5559.336255,320.823022,-8781.931689
2994.553481,-6469.132886,3179.499805,-8518.569507
2994.553726,-7177.816577,4381.389038,-9567.229834
2994.553971,-5803.544824,1383.848560,-8279.149341
2994.554217,-2360.682837,172.382520,-7929.595898
2994.554462,-1848.323682,-2193.088721,-7010.222461
2994.554707,-248.996973,-1053.448730,-5904.101294
2994.554953,804.451758,7115.567334,-6119.579443
2994.555198,-512.359155,16836.026074,-6617.573389
2994.555443,708.683691,24794.352393,-7920.019092
2994.555688,1666.364355,24368.184497,-7896.077075
2994.555934,2786.850732,17712.303882,-6330.269189
2994.556179,3912.125513,12239.158887,-5750.872388
2994.556424,3730.166187,14116.212988,-5904.101294
2994.556669,2547.430566,22811.953418,-8135.497241
2994.556915,1742.978809,32383.971655,-9514.557397
2994.557160,1335.964526,37550.658838,-10510.545288
2994.557405,2202.665527,37536.293628,-9485.826978
2994.557651,3371.035937,35472.491797,-7953.537915
2994.557896,4395.754248,33992.875171,-9686.939917
2994.558141,4012.681982,32733.525098,-10553.640918
2994.558386,3174.711401,28950.686475,-11765.106958
2994.558632,2810.792749,22476.765186,-11707.646118
2994.558877,3035.847705,14748.282227,-10395.623608
2994.559122,3227.383838,8465.897070,-10769.119067
2994.559367,3433.285181,6196.193896,-10874.463940
2994.559613,2762.908716,6488.286499,-12119.448804
2994.559858,1278.503687,4563.348364,-13096.283081
2994.560103,1072.602344,5635.950708,-12583.923926
2994.560349,488.417139,4137.180469,-12095.506787
2994.560594,967.257471,-1254.561670,-12018.892334
2994.560839,3495.534424,-3404.554761,-11990.161914
2994.561084,3122.038965,-4697.423657,-12607.865942
2994.561330,210.689746,-6861.781958,-14460.978027
2994.561575,-2351.106030,-11133.037720,-12454.637036
2994.561820,-1508.347046,-15342.044238,-14580.688110
2994.562066,1115.697974,-19148.824878,-12243.947290
2994.562311,2231.395947,-21911.733594,-11171.344946
2994.562556,809.240161,-22720.973755,-12995.726611
2994.562801,-861.912598,-21523.872925,-10500.968481
2994.563047,-1728.613599,-19776.105713,-12871.228125
2994.563292,-1106.121167,-20829.554443,-12488.155859
2994.563537,62.249243,-25062.502979,-10295.067139
2994.563782,756.567725,-27935.544971,-11310.208643
2994.564028,814.028564,-27973.852197,-8437.166650
2994.564273,-52.672437,-26388.890698,-8576.030347
2994.564518,-1106.121167,-27514.165479,-9993.397729
2994.564764,-1407.790576,-32398.336865,-8566.453540
2994.565009,-2030.283008,-35568.259863,-9639.055884
2994.565254,-2413.355273,-32091.879053,-8269.572534
2994.565499,-3840.299463,-23118.411230,-7671.022119
2994.565745,-5588.066675,-12478.579053,-9021.351855
2994.565990,-6157.886670,-5382.165332,-8456.320264
2994.566235,-5458.779785,-818.816968,-9390.058911
2994.566480,-6186.617090,1790.862842,-8992.621436
2994.566726,-6607.996582,3835.511060,-8614.337573
2994.566971,-6914.454395,3284.844678,-9567.229834
2994.567216,-4218.583325,0.000000,-8355.763794
2994.567462,-1795.651245,-1795.651245,-7259.219434
2994.567707,-493.205542,723.048901,-6172.251880
2994.567952,4.788403,2370.259644,-5813.121631
2994.568197,-177.170923,9763.554370,-6301.538770
2994.568443,43.095630,20029.891089,-7244.854224
2994.568688,905.008228,24358.607690,-8992.621436
2994.568933,1958.456958,21643.583008,-6837.839941
2994.569178,2997.540479,14662.090967,-5683.834741
2994.569424,3514.688037,11726.799731,-5655.104321
2994.569669,2624.045020,16328.455322,-5928.043311
2994.569914,2279.279980,25737.667847,-9739.612354
2994.570160,1781.286035,34510.022729,-10247.183105
2994.570405,1872.265698,38589.742358,-9878.476050
2994.570650,3342.305518,38551.435132,-8939.948999
2994.570895,4213.794922,35879.506079,-7852.981445
2994.571141,4630.386011,33025.617700,-10184.933862
2994.571386,4132.392065,30803.798560,-11793.837378
2994.571631,3026.270898,26637.887671,-11875.240234
2994.571876,2513.911743,20379.444531,-11880.028638
2994.572122,2983.175269,12770.671655,-9892.841260
2994.572367,3217.807031,7034.164478,-10223.241089
2994.572612,2700.659473,4764.461304,-11602.301245
2994.572858,1996.764185,3351.882324,-12717.999219
2994.573103,1503.558643,7867.346655,-14173.673828
2994.573348,-335.188232,6703.764648,-11640.608472
2994.573593,38.307227,1096.544360,-12114.660400
2994.573839,2729.389893,-2724.601489,-11286.266626
2994.574084,3519.476440,-5286.397266,-11951.854687
2994.574329,3050.212915,-5415.684155,-14580.688110
2994.574575,-1177.947217,-8039.729175,-12703.634009
2994.574820,-3026.270898,-11496.956372,-14618.995337
2994.575065,-162.805713,-16701.950781,-11937.489478
2994.575310,2111.685864,-21303.606372,-11860.875024
2994.575556,2523.488550,-23712.173242,-12301.408130
2994.575801,287.304199,-22409.727539,-12038.045947
2994.576046,-1685.517969,-18923.769922,-11812.990991
2994.576291,-1886.630908,-18492.813623,-12612.654346
2994.576537,-1015.141504,-22768.857788,-10582.371338
2994.576782,263.362183,-27044.901953,-11214.440576
2994.577027,1278.503687,-28945.898071,-10467.449658
2994.577273,148.440503,-27087.997583,-8614.337573
2994.577518,-665.588062,-25680.207007,-9744.400757
2994.577763,-1379.060156,-28912.379248,-7814.674219
2994.578008,-2159.569897,-34644.098022,-9375.693701
2994.578254,-1723.825195,-35716.700366,-8973.467822
2994.578499,-2681.505859,-29448.680420,-8288.726147
2994.578744,-4357.447021,-19081.787231,-9255.983618
2994.578989,-5439.626172,-9093.177905,-7709.329346
2994.579235,-5865.794067,-2600.103003,-8791.508496
2994.579480,-5928.043311,229.843359,-8815.450513
2994.579725,-5894.524487,2001.552588,-8992.621436
2994.579971,-5975.927344,5027.823486,-9849.745630
2994.580216,-5142.745166,5913.678101,-9155.427148
2994.580461,-4050.989209,-3711.012573,-6502.651709
2994.580706,-1417.367383,-5918.466504,-7340.622290
2994.580952,282.515796,-1273.715283,-5109.226343
2994.581197,225.054956,7058.106494,-7603.984473
2994.581442,181.959326,19072.210425,-7982.268335
2994.581687,-459.686719,25962.722803,-6076.483813
2994.581933,885.854614,24459.164160,-9428.366138
2994.582178,1996.764185,15614.983228,-3313.575098
2994.582423,3213.018628,8638.279590,-7441.178760
2994.582669,3409.343164,11645.396875,-7991.845142
2994.582914,2403.778467,22112.846533,-6311.115576
2994.583159,1465.251416,32388.760059,-10970.232007
2994.583404,1460.463013,34711.135669,-7216.123804
2994.583650,1953.668555,35079.842725,-8805.873706
2994.583895,3811.569043,36861.128760,-10888.829150
2994.584140,5046.977100,37536.293628,-9126.696729
2994.584385,4970.362646,35668.816333,-12531.251489
2994.584631,4256.890552,29798.233862,-9787.496387
2994.584876,3270.479468,22376.208716,-9016.563452
2994.585121,3016.694092,15993.267090,-12358.868970
2994.585367,3572.148877,10381.258398,-10754.753857
2994.585612,3055.001318,5870.582471,-13038.822241
2994.585857,2633.621826,3145.980981,-12061.987964
2994.586102,1599.326709,8801.085303,-11027.692847
2994.586348,-1417.367383,6703.764648,-10907.982764
2994.586593,-421.379492,3217.807031,-12880.804932
2994.586838,1929.726538,-1216.254443,-12923.900562
2994.587084,2006.340991,-3816.357446,-14058.752148
2994.587329,3629.609717,-4707.000464,-11338.939062
2994.587574,-33.518823,-5506.663818,-11903.970654
2994.587819,-2906.560815,-8317.456567,-13608.642236
2994.588065,-1043.871924,-12966.996191,-12756.306445
2994.588310,1987.187378,-18306.065894,-15935.806250
2994.588555,3275.267871,-22668.301318,-11741.164941
2994.588800,1450.886206,-23616.405176,-11133.037720
2994.589046,-1278.503687,-19862.296973,-10304.643945
2994.589291,-1513.135449,-18559.851270,-11310.208643
2994.589536,-617.704028,-21035.455786,-13498.508960
2994.589782,617.704028,-25924.415576,-12617.442749
2994.590027,727.837305,-28811.822778,-10419.565625
2994.590272,-483.628735,-27791.892871,-8561.665137
2994.590517,-1029.506714,-25316.288354,-7575.254053
2994.590763,-1101.332764,-25890.896753,-8772.354883
2994.591008,-1589.749902,-31186.870825,-11070.788477
2994.591253,-1781.286035,-35802.891626,-9600.748657
2994.591498,-2767.697119,-33925.837524,-8911.218579
2994.591744,-3773.261816,-25737.667847,-6847.416748
2994.591989,-5252.878442,-14853.627100,-7278.373047
2994.592234,-5693.411548,-5990.292554,-9821.015210
2994.592480,-5023.035083,-1924.938135,-9691.728320
2994.592725,-5228.936426,-292.092603,-10213.664282
2994.592970,-5841.852051,2695.871069,-8461.108667
2994.593215,-5870.582471,5391.742139,-7326.257080
2994.593461,-4319.139795,3902.548706,-8667.010010
2994.593706,-2370.259644,-5319.916089,-6392.518433
2994.593951,23.942017,-4735.730884,-9141.061938
2994.594196,746.990918,1618.480322,-5975.927344
2994.594442,-292.092603,10625.466968,-6042.964990
2994.594687,-57.460840,22361.843506,-6684.611035
2994.594932,-71.826050,26982.652710,-6004.657764
2994.595178,1733.402002,22610.840479,-9428.366138
2994.595423,2231.395947,13249.511987,-5612.008691
2994.595668,2868.253589,7709.329346,-6962.338428
2994.595913,2078.167041,13656.526270,-7034.164478
2994.596159,1522.712256,25828.647510,-5961.562134
2994.596404,1407.790576,34304.121387,-10127.473022
2994.596649,1776.497632,35113.361548,-9342.174878
2994.596894,2485.181323,35544.317847,-9342.174878
2994.597140,4295.197778,36612.131787,-10429.142432
2994.597385,4888.959790,36406.230444,-8810.662109
2994.597630,5118.803149,33825.281055,-10797.849487
2994.597876,4702.212061,28069.620264,-10615.890161
2994.598121,3768.473413,20915.745703,-10649.408984
2994.598366,3466.804004,14144.943408,-12540.828296
2994.598611,3217.807031,8465.897070,-10726.023438
2994.598857,2916.137622,4740.519287,-11362.881079
2994.599102,2035.071411,4242.525342,-12224.793677
2994.599347,656.011255,8853.757739,-11707.646118
2994.599592,-1551.442676,5837.063647,-12229.582080
2994.599838,-545.877979,1532.289062,-13804.966772
2994.600083,1470.039819,-3485.957617,-11640.608472
2994.600328,2183.511914,-4711.788867,-13493.720557
2994.600574,2911.349219,-4754.884497,-11372.457886
2994.600819,-847.547388,-6517.016919,-13019.668628
2994.601064,-2782.062329,-9892.841260,-14733.917017
2994.601309,-416.591089,-14882.357520,-12411.541406
2994.601555,2542.642163,-19838.354956,-14709.975000
2994.601800,3232.172241,-23242.909717,-10706.869824
2994.602045,1173.158813,-22850.260645,-11042.058057
2994.602291,-1158.793604,-18904.616309,-11434.707129
2994.602536,-1345.541333,-18914.193115,-12052.411157
2994.602781,-488.417139,-22974.759131,-12919.112158
2994.603026,641.646045,-27341.782959,-11707.646118
2994.603272,402.225879,-28529.306982,-9380.482104
2994.603517,-450.109912,-26724.078931,-8657.433203
2994.603762,-785.298145,-24933.216089,-8590.395557
2994.604007,-1628.057129,-27729.643628,-9097.966309
2994.604253,-2082.955444,-33202.788623,-11066.000073
2994.604498,-2408.566870,-35630.509106,-8288.726147
2994.604743,-2829.946362,-31555.577881,-8350.975391
2994.604989,-4189.852905,-21667.525024,-7321.468677
2994.605234,-5607.220288,-11444.283936,-7522.581616
2994.605479,-5928.043311,-3524.264844,-10055.646973
2994.605724,-5291.185669,-785.298145,-9318.232861
2994.605970,-5161.898779,952.892261,-9308.656055
2994.606215,-5908.889697,5525.817432,-8365.340601
2994.606460,-5597.643481,2710.236279,-8432.378247
2994.606705,-3323.151904,-440.533105,-7776.366992
2994.606951,-1005.564697,-5640.739111,-6861.781958
2994.607196,100.556470,-2255.337964,-8020.575562
2994.607441,1211.466040,6631.938599,-5521.029028
2994.607687,-445.321509,16256.629272,-7048.529687
2994.607932,-301.669409,24497.471387,-6354.211206
2994.608177,569.819995,24554.932227,-6976.703638
2994.608422,2197.877124,17654.843042,-8355.763794
2994.608668,2609.679810,10108.319409,-5190.629199
2994.608913,2691.082666,10448.296045,-7532.158423
2994.609158,1958.456958,19177.555298,-6856.993555
2994.609403,1154.005200,29242.779077,-7503.428003
2994.609649,1096.544360,34557.906763,-10256.759912
2994.609894,1786.074438,35697.546753,-9097.966309
2994.610139,3356.670728,36861.128760,-10204.087476
2994.610385,4865.017773,37047.876489,-10079.588989
2994.610630,5319.916089,35280.955664,-8973.467822
2994.610875,4965.574243,31167.717212,-11051.634863
2994.611120,4089.296436,24847.024829,-10295.067139
2994.611366,3835.511060,18239.028247,-11611.878052
2994.611611,3323.151904,12105.083594,-12229.582080
2994.611856,3131.615771,7747.636572,-10907.982764
2994.612101,2489.969727,6100.425830,-11784.260571
2994.612347,1110.909570,4084.508032,-10783.484277
2994.612592,172.382520,2801.215942,-12009.315527
2994.612837,-560.243188,4367.023828,-14437.036011
2994.613083,-1039.083521,1599.326709,-11975.796704
2994.613328,1158.793604,-1642.422339,-13646.949463
2994.613573,2437.297290,-3964.797949,-11171.344946
2994.613818,1316.810913,-6392.518433,-11650.185278
2994.614064,-1019.929907,-8882.488159,-14307.749121
2994.614309,-2193.088721,-12507.309473,-13091.494678
2994.614554,775.721338,-16247.052466,-15547.945581
2994.614800,2667.140649,-20049.044702,-11540.052002
2994.615045,2317.587207,-22835.895435,-10663.774194
2994.615290,474.051929,-22582.110059,-11635.820068
2994.615535,-799.663354,-20915.745703,-10927.136377
2994.615781,-1024.718311,-20111.293945,-14164.097021
2994.616026,-474.051929,-22826.318628,-12301.408130
2994.616271,-52.672437,-26944.345483,-10175.357056
2994.616516,43.095630,-28452.692529,-9275.137231
2994.616762,-521.935962,-26570.850024,-7489.062793
2994.617007,-1235.408057,-25823.859106,-9538.499414
2994.617252,-1680.729565,-29065.608154,-10429.142432
2994.617498,-2284.068384,-33906.683911,-9504.980591
2994.617743,-2829.946362,-34256.237354,-8494.627490
2994.617988,-3696.647363,-28495.788159,-6909.665991
2994.618233,-4529.829541,-18148.048584,-7996.633545
2994.618479,-5267.243652,-8643.067993,-9227.253198
2994.618724,-4783.614917,-2226.607544,-9797.073193
2994.618969,-5425.260962,555.454785,-9337.386475
2994.619214,-5645.527515,1810.016455,-8092.401611
2994.619460,-6100.425830,3797.203833,-8576.030347
2994.619705,-3940.855933,3744.531396,-8954.314209
2994.619950,-2221.819141,-1604.115112,-7872.135059
2994.620196,-804.451758,-5449.202979,-8092.401611
2994.620441,928.950244,76.614453,-5305.550879
2994.620686,272.938989,9619.902271,-6052.541797
2994.620931,-440.533105,20231.004028,-7177.816577
2994.621177,593.762012,26182.989355,-6933.608008
2994.621422,1561.019482,24152.706348,-9610.325464
2994.621667,2331.952417,15002.067603,-5449.202979
2994.621912,2451.662500,9054.870679,-5463.568188
2994.622158,2331.952417,11736.376538,-7082.048511
2994.622403,1575.384692,22294.805859,-6703.764648
2994.622648,1647.210742,33083.078540,-10764.330664
2994.622894,1422.155786,36004.004565,-9548.076221
2994.623139,2102.109058,34912.248608,-8355.763794
2994.623384,3586.514087,35702.335156,-9643.844287
2994.623629,4697.423657,35960.908936,-8772.354883
2994.623875,5243.301636,34624.944409,-11846.509814
2994.624120,4850.652563,29405.584790,-11650.185278
2994.624365,4089.296436,22251.710229,-10017.339746
2994.624610,3663.128540,15083.470459,-11224.017383
2994.624856,2896.984009,9749.189160,-10390.835205
2994.625101,3122.038965,6679.822632,-11434.707129
2994.625346,2360.682837,3696.647363,-13148.955518
2994.625592,1144.428394,7096.413721,-12770.671655
2994.625837,-1125.274780,6081.272217,-11578.359229
2994.626082,-1608.903516,1795.651245,-12488.155859
2994.626327,804.451758,-1987.187378,-11506.533179
2994.626573,2059.013428,-5104.437939,-13077.129468
2994.626818,2815.581152,-4390.965845,-13618.219043
2994.627063,-292.092603,-6047.753394,-11812.990991
2994.627309,-3189.076611,-8753.201270,-14973.337183
2994.627554,-1177.947217,-13129.801904,-11544.840405
2994.627799,1987.187378,-17961.300854,-13450.624927
2994.628044,3275.267871,-21954.829224,-13005.303418
2994.628290,1752.555615,-23362.619800,-11171.344946
2994.628535,-1192.312427,-20599.711084,-11851.298218
2994.628780,-1584.961499,-19230.227734,-11884.817041
2994.629025,-847.547388,-21954.829224,-11444.283936
2994.629271,646.434448,-26566.061621,-12258.312500
2994.629516,909.796631,-29333.758740,-10400.412012
2994.629761,19.153613,-27930.756567,-8762.778076
2994.630007,-1067.813940,-25033.772559,-9380.482104
2994.630252,-1508.347046,-26192.566162,-7608.772876
2994.630497,-2020.706201,-31378.406958,-10620.678564
2994.630742,-1915.361328,-35060.689111,-9351.751685
2994.630988,-2432.508887,-32407.913672,-8054.094385
2994.631233,-3725.377783,-23697.808032,-8753.201270
2994.631478,-5473.144995,-13359.645264,-6952.761621
2994.631723,-6133.944653,-5075.707520,-9208.099585
2994.631969,-5310.339282,-790.086548,-9543.287817
2994.632214,-5085.284326,641.646045,-8872.911353
2994.632459,-5688.623145,2317.587207,-9471.461768
2994.632705,-5588.066675,2178.723511,-8331.821777
2994.632950,-3730.166187,-814.028564,-7517.793213
2994.633195,-1144.428394,-2978.386865,-7867.346655
2994.633440,-86.191260,761.356128,-6737.283472
2994.633686,1182.735620,7943.961108,-6574.477759
2994.633931,220.266553,14326.902734,-7125.144141
2994.634176,-421.379492,18847.155469,-5439.626172
2994.634421,1575.384692,22562.956445,-8116.343628
2994.634667,1819.593262,19354.726221,-7139.509351
2994.634912,2523.488550,13661.314673,-6042.964990
2994.635157,2729.389893,12325.350146,-7694.964136
2994.635403,1795.651245,17994.819678,-5865.794067
2994.635648,1015.141504,26230.873389,-7963.114722
2994.635893,1254.561670,32695.217871,-9610.325464
2994.636138,1513.135449,35620.932300,-9533.711011
2994.636384,2695.871069,37660.792114,-10194.510669
2994.636629,4151.545679,37766.136987,-9356.540088
2994.636874,4759.672900,34146.104077,-9485.826978
2994.637119,4625.597607,29453.468823,-10745.177051
2994.637365,4271.255762,25503.036084,-10797.849487
2994.637610,3993.528369,21150.377466,-11592.724438
2994.637855,3524.264844,15116.989282,-11779.472168
2994.638101,3098.096948,8561.665137,-10630.255371
2994.638346,2676.717456,5391.742139,-11362.881079
2994.638591,1599.326709,3758.896606,-11640.608472
2994.638836,335.188232,1704.671582,-12789.825269
2994.639082,588.973608,6598.419775,-13881.581226
2994.639327,-876.277808,2791.639136,-11607.089648
2994.639572,-57.460840,-1776.497632,-12785.036865
2994.639817,2422.932080,-5137.956763,-10615.890161
2994.640063,933.738647,-6684.611035,-13436.259717
2994.640308,-646.434448,-8245.630518,-14547.169287
2994.640553,-2207.453931,-10874.463940,-13110.648291
2994.640799,-268.150586,-14609.418530,-14858.415503
2994.641044,1589.749902,-19364.303027,-9959.878906
2994.641289,2346.317627,-22931.663501,-11793.837378
2994.641534,474.051929,-22912.509888,-11947.066284
2994.641780,-258.573779,-21183.896289,-12047.622754
2994.642025,-555.454785,-19072.210425,-13781.024756
2994.642270,-177.170923,-21964.406030,-10893.617554
2994.642516,234.631763,-26810.270190,-9691.728320
2994.642761,584.185205,-29439.103613,-10060.435376
2994.643006,95.768066,-27744.008838,-8834.604126
2994.643251,-646.434448,-25933.992383,-10721.235034
2994.643497,-1613.691919,-28131.869507,-9576.806641
2994.643742,-2408.566870,-33312.921899,-7963.114722
2994.643987,-3131.615771,-34361.582227,-8188.169678
2994.644232,-3615.244507,-29597.120923,-7235.277417
2994.644478,-4309.562988,-19426.552271,-9562.441431
2994.644723,-5324.704492,-9212.887988,-9701.305127
2994.644968,-5616.797095,-2920.926025,-8810.662109
2994.645214,-5559.336255,225.054956,-8236.053711
2994.645459,-5712.565161,1685.517969,-7244.854224
2994.645704,-5516.240625,3284.844678,-9538.499414
2994.645949,-3672.705347,3548.206860,-10510.545288
2994.646195,-2466.027710,-2940.079639,-7340.622290
2994.646448,-756.567725,-5995.080957,-7680.598926
2994.646696,794.874951,-23.942017,-4414.907861
2994.646944,430.956299,8523.357910,-5396.530542
2994.647191,378.283862,19795.259326,-9002.198242
2994.647439,363.918652,25680.207007,-6809.109521
2994.647687,1326.387720,23989.900635,-9830.592017
2994.647935,1920.149731,15959.748267,-4486.733911
2994.648182,2331.952417,9969.455713,-4376.600635
2994.648430,2518.700146,12282.254517,-8030.152368
2994.648678,1508.347046,22002.713257,-6952.761621
2994.648926,1441.309399,31962.592163,-11190.498560
2994.649173,1297.657300,34859.576172,-9452.308154
2994.649421,1436.520996,34763.808105,-6967.126831
2994.649669,3236.960645,35721.488770,-9825.803613
2994.649916,4558.559961,36123.714648,-8743.624463
2994.650164,5109.226343,34586.637183,-12334.926953
2994.650412,4544.194751,29319.393530,-12129.025610
2994.650660,3500.322827,22486.341992,-9169.792358
2994.650907,3169.922998,15552.733984,-10826.579907
2994.651155,3442.861987,11295.843433,-9911.994873
2994.651403,3303.998291,7455.543970,-11678.915698
2994.651650,2566.584180,3797.203833,-13939.042065
2994.651898,1709.459985,8192.958081,-12445.060229
2994.652146,-1379.060156,5784.391211,-10888.829150
2994.652394,-1187.524023,2806.004346,-12583.923926
2994.652641,1355.118140,-2015.917798,-10735.600244
2994.652889,2001.552588,-4659.116431,-14700.398193
2994.653137,3232.172241,-4941.632227,-12689.268799
2994.653385,-272.938989,-5319.916089,-12119.448804
2994.653632,-3179.499805,-7824.251025,-14207.192651
2994.653880,-1642.422339,-12196.063257,-10558.429321
2994.654128,1608.903516,-17104.176660,-15155.296509
2994.654375,3031.059302,-21557.391748,-12512.097876
2994.654623,1776.497632,-23568.521143,-11669.338892
2994.654871,-1158.793604,-20690.690747,-11923.124268
2994.655119,-1709.459985,-19584.569580,-10500.968481
2994.655366,-713.472095,-21777.658301,-12133.814014
2994.655614,1034.295117,-26206.931372,-12310.984937
2994.655862,1216.254443,-29012.935718,-10615.890161
2994.656110,86.191260,-28050.466650,-9753.977563
2994.656357,-627.280835,-25081.656592,-8202.534888
2994.656605,-1436.520996,-25914.838770,-7987.056738
2994.656853,-1431.732593,-31033.641919,-10314.220752
2994.657100,-1752.555615,-34380.735840,-9011.775049
2994.657348,-2552.218970,-32695.217871,-9433.154541
2994.657596,-3916.913916,-24966.734912,-7824.251025
2994.657844,-5698.199951,-14609.418530,-7115.567334
2994.658091,-6287.173560,-6105.214233,-9356.540088
2994.658339,-5104.437939,-2188.300317,-9088.389502
2994.658587,-4932.055420,402.225879,-9888.052856
2994.658835,-5774.814404,1891.419312,-9227.253198
2994.659082,-5501.875415,2518.700146,-7982.268335
2994.659330,-4156.334082,1168.370410,-8073.247998
2994.659578,-1096.544360,-474.051929,-7129.932544
2994.659825,-158.017310,-3390.189551,-6449.979272
2994.660073,1043.871924,2576.160986,-7943.961108
2994.660321,986.411084,11204.863770,-5430.049365
2994.660569,-445.321509,20661.960327,-7412.448340
2994.660816,938.527051,25488.670874,-7048.529687
2994.661064,1580.173096,22376.208716,-6421.248853
2994.661312,2461.239307,14571.111304,-7977.479932
2994.661560,2671.929053,10424.354028,-5204.994409
2994.661807,2355.894434,14729.128613,-7484.274390
2994.662055,995.987891,25613.169360,-8063.671191
2994.662303,1130.063184,34184.411304,-8101.978418
2994.662550,1599.326709,37383.064722,-10500.968481
2994.662798,2518.700146,36190.752295,-8834.604126
2994.663046,3739.742993,35108.573145,-9476.250171
2994.663294,4611.232397,33777.397021,-10764.330664
2994.663541,4367.023828,31718.383594,-10299.855542
2994.663789,4127.603662,27159.823633,-11659.762085
2994.664037,3854.664673,20709.844360,-10591.948145
2994.664284,3629.609717,13752.294336,-10783.484277
2994.664532,2868.253589,8307.879761,-11731.588135
2994.664780,2671.929053,6531.382129,-11267.113013
2994.665028,2030.283008,6813.897925,-12722.787622
2994.665275,497.993945,6086.060620,-12114.660400
2994.665523,-268.150586,3155.557788,-11798.625781
2994.665771,52.672437,-23.942017,-12990.938208
2994.666019,651.222852,-2729.389893,-12325.350146
2994.666266,2173.935107,-3169.922998,-12746.729639
2994.666514,1814.804858,-2791.639136,-13297.396021
2994.666762,-1177.947217,-6038.176587,-12416.329810
2994.667009,-2193.088721,-10692.504614,-13460.201733
2994.667257,-483.628735,-16089.035156,-13215.993164
2994.667505,1455.674609,-19809.624536,-13053.187451
2994.667753,2116.474268,-22088.904517,-12344.503760
2994.668000,383.072266,-22084.116113,-11401.188306
2994.668248,-794.874951,-21021.090576,-11420.341919
2994.668496,-766.144531,-21734.562671,-11798.625781
2994.668744,0.000000,-24291.570044,-11674.127295
2994.668991,478.840332,-27020.959937,-11932.701074
2994.669239,272.938989,-28021.736230,-10046.070166
2994.669487,191.536133,-26159.047339,-9102.754712
2994.669734,-426.167896,-25005.042139,-8528.146313
2994.669982,-1019.929907,-28127.081104,-8547.299927
2994.670230,-1570.596289,-32728.736694,-9706.093530
2994.670478,-2609.679810,-34050.336011,-8839.392529
2994.670725,-3452.438794,-29721.619409,-8868.122949
2994.670973,-4769.249707,-20829.554443,-8212.111694
2994.671221,-6009.446167,-11214.440576,-7948.749512
2994.671469,-5391.742139,-3706.224170,-9045.293872
2994.671716,-4783.614917,253.785376,-8552.088330
2994.671964,-5755.660791,1316.810913,-8623.914380
2994.672212,-6138.733057,2102.109058,-8954.314209
2994.672459,-5300.762476,746.990918,-8523.357910
2994.672707,-2513.911743,1431.732593,-8585.607153
2994.672955,-1019.929907,-2758.120312,-6684.611035
2994.673203,675.164868,-1632.845532,-5492.298608
2994.673450,1407.790576,6909.665991,-6986.280444
2994.673698,-71.826050,15308.525415,-5516.240625
2994.673946,330.399829,23290.793750,-8331.821777
2994.674194,1364.694946,23922.862988,-7465.120776
2994.674441,2303.221997,19053.056812,-6895.300781
2994.674689,3213.018628,12607.865942,-5578.489868
2994.674937,3193.865015,12028.469141,-5717.353564
2994.675184,1881.842505,20072.986719,-8116.343628
2994.675432,1144.428394,30593.108813,-8609.549170
2994.675680,1450.886206,37196.316992,-10639.832178
2994.675928,1953.668555,37234.624219,-9299.079248
2994.676175,3055.001318,35295.320874,-8068.459595
2994.676423,4003.105176,34385.524243,-9787.496387
2994.676671,4204.218115,32360.029639,-9782.707983
2994.676918,3960.009546,28998.570508,-12071.564771
2994.677166,3462.015601,23769.634082,-11453.860742
2994.677414,3098.096948,17137.695483,-10175.357056
2994.677662,2743.755103,11089.942090,-11046.846460
2994.677909,2901.772412,7613.561279,-10414.777222
2994.678157,2691.082666,6837.839941,-12349.292163
2994.678405,1455.674609,6119.579443,-13105.859888
2994.678653,416.591089,2796.427539,-11971.008301
2994.678900,579.396802,5698.199951,-13297.396021
2994.679148,-33.518823,263.362183,-10400.412012
2994.679396,2135.627881,-2911.349219,-13474.566943
2994.679643,3404.554761,-4678.270044,-12076.353174
2994.679891,397.437476,-5602.431885,-14030.021729
2994.680139,-1307.234106,-8489.839087,-13699.621899
2994.680387,-2121.262671,-12770.671655,-11937.489478
2994.680634,325.611426,-16606.182715,-14164.097021
2994.680882,1493.981836,-20154.389575,-10716.446631
2994.681130,1331.176123,-23046.585181,-12899.958545
2994.681378,-833.182178,-23027.431567,-11990.161914
2994.681625,-1584.961499,-21954.829224,-11568.782422
2994.681873,-1244.984863,-21136.012256,-11994.950317
2994.682121,138.863696,-24200.590381,-10840.945117
2994.682368,703.895288,-27734.432031,-10486.603271
2994.682616,852.335791,-28218.060767,-10242.394702
2994.682864,282.515796,-25847.801123,-8992.621436
2994.683112,-584.185205,-25919.627173,-9303.867651
2994.683359,-1063.025537,-29874.848315,-9275.137231
2994.683607,-1584.961499,-34323.275000,-8015.787158
2994.683855,-2365.471240,-32838.869971,-9169.792358
2994.684103,-3701.435767,-25799.917090,-7996.633545
2994.684350,-4994.304663,-15658.078857,-8968.679419
2994.684598,-5966.350537,-6938.396411,-9045.293872
2994.684846,-5430.049365,-2106.897461,-8394.071021
2994.685093,-5578.489868,2303.221997,-8834.604126
2994.685341,-6368.576416,4678.270044,-8532.934717
2994.685589,-7038.952881,-1924.938135,-8757.989673
2994.685837,-4280.832568,-3447.650391,-9979.032520
2994.686084,-1996.764185,-3955.221143,-6751.648682
2994.686332,-723.048901,-1685.517969,-7129.932544
2994.686580,622.492432,5597.643481,-5770.026001
2994.686828,-545.877979,13211.204761,-5683.834741
2994.687075,464.475122,19680.337646,-8599.972363
2994.687323,1422.155786,22036.232080,-6981.492041
2994.687571,2719.813086,19445.705884,-8389.282617
2994.687818,3399.766357,15203.180542,-6181.828687
2994.688066,3873.818286,14465.766431,-4544.194751
2994.688314,2997.540479,18382.680347,-7302.315063
2994.688562,2456.450903,24679.430713,-7943.961108
2994.688809,1532.289062,31555.577881,-9859.322437
2994.689057,1513.135449,35793.314819,-10788.272681
2994.689305,1929.726538,38086.960010,-8226.476904
2994.689553,2791.639136,37478.832788,-9117.119922
2994.689800,3835.511060,33451.785596,-9145.850342
2994.690048,3538.630054,29070.396558,-10635.043774
2994.690296,3098.096948,24875.755249,-12368.445776
2994.690543,2772.485522,20369.867725,-11386.823096
2994.690791,2925.714429,15485.696338,-11061.211670
2994.691039,2758.120312,10223.241089,-10453.084448
2994.691287,2777.273926,7105.990527,-10922.347974
2994.691534,2537.853760,5770.026001,-12464.213843
2994.691782,1819.593262,4266.467358,-12943.054175
2994.692030,1288.080493,5252.878442,-13014.880225
2994.692277,847.547388,3993.528369,-11932.701074
2994.692525,1412.578979,-1575.384692,-11396.399902
2994.692773,3059.789722,-4012.681982,-12564.770312
2994.693021,2264.914771,-5209.782812,-12660.538379
2994.693268,-560.243188,-6028.599780,-15289.371802
2994.693516,-1848.323682,-9543.287817,-13081.917871
2994.693764,-751.779321,-14475.343237,-12852.074512
2994.694012,924.161841,-19258.958154,-11980.585107
2994.694259,938.527051,-22821.530225,-10711.658228
2994.694507,-459.686719,-23625.981982,-13771.447949
2994.694755,-1321.599316,-22050.597290,-12349.292163
2994.695002,-1321.599316,-20954.052930,-12497.732666
2994.695250,-407.014282,-22380.997119,-11171.344946
2994.695498,248.996973,-26254.815405,-9074.024292
2994.695746,584.185205,-28088.773877,-10481.814868
2994.695993,670.376465,-26633.099268,-10419.565625
2994.696241,191.536133,-24952.369702,-9878.476050
2994.696489,-148.440503,-27571.626318,-9782.707983
2994.696737,-1039.083521,-32848.446777,-7781.155396
2994.696984,-1920.149731,-35031.958691,-7647.080103
2994.697232,-2810.792749,-30119.056885,-8662.221606
2994.697480,-3960.009546,-20810.400830,-9366.116895
2994.697727,-5655.104321,-11343.727466,-10156.203442
2994.697975,-6009.446167,-4639.962817,-8686.163623
2994.698223,-5726.930371,-794.874951,-7273.584644
2994.698471,-6641.515405,866.701001,-7527.370020
2994.698718,-6607.996582,1843.535278,-8935.160596
2994.698966,-6129.156250,972.045874,-10055.646973
2994.699214,-3988.739966,-794.874951,-9332.598071
2994.699462,-1810.016455,-1565.807886,-6856.993555
2994.699709,-387.860669,1283.292090,-4261.678955
2994.699957,842.758984,7814.674219,-5573.701465
2994.700205,23.942017,11621.454858,-6478.709692
2994.700452,1422.155786,18483.236816,-8738.836060
2994.700700,2676.717456,22064.962500,-9217.676392
2994.700948,2671.929053,19297.265381,-5679.046338
2994.701196,3840.299463,16012.420703,-4812.345337
2994.701443,3720.589380,16548.721875,-5166.687183
2994.701691,3184.288208,21610.064185,-7819.462622
2994.701939,2327.164014,28802.245972,-10213.664282
2994.702187,1561.019482,33695.994165,-10711.658228
2994.702434,1015.141504,36195.540698,-8681.375220
2994.702682,2193.088721,37282.508252,-7843.404639
2994.702930,3414.131567,35721.488770,-8475.473877
2994.703177,3902.548706,31153.352002,-10840.945117
2994.703425,3332.728711,26920.403467,-12411.541406
2994.703673,2317.587207,22821.530225,-11607.089648
2994.703921,2121.262671,18171.990601,-11046.846460
2994.704168,2542.642163,12708.422412,-9562.441431
2994.704416,3074.154932,8274.360937,-10467.449658
2994.704664,3078.943335,6670.245825,-12593.500732
2994.704911,2264.914771,5746.083984,-12818.555688
2994.705159,991.199487,2978.386865,-12622.231152
2994.705407,1225.831250,4845.864160,-12990.938208
2994.705655,1192.312427,3356.670728,-10558.429321
2994.705902,2298.433594,-1651.999146,-12636.596362
2994.706150,3782.838623,-4352.658618,-13024.457031
2994.706398,1264.138477,-6531.382129,-13163.320728
2994.706646,-1594.538306,-8494.627490,-14968.548779
2994.706893,-1747.767212,-12990.938208,-11147.402930
2994.707141,-95.768066,-16543.933472,-13939.042065
2994.707389,1312.022510,-19891.027393,-11305.420239
2994.707636,373.495459,-22653.936108,-11990.161914
2994.707884,-1398.213770,-23137.564844,-13321.338037
2994.708132,-1900.996118,-22376.208716,-11214.440576
2994.708380,-1618.480322,-21461.623682,-12358.868970
2994.708627,-335.188232,-22936.451904,-10735.600244
2994.708875,325.611426,-26427.197925,-9696.516724
2994.709123,718.260498,-27720.066821,-10682.927808
2994.709371,445.321509,-26254.815405,-9495.403784
2994.709618,-158.017310,-26345.795068,-9026.140259
2994.709866,-464.475122,-30229.190161,-9797.073193
2994.710114,-876.277808,-33466.150806,-7469.909180
2994.710361,-1977.610571,-32709.583081,-8801.085303
2994.710609,-3112.462158,-26642.676074,-8705.317236
2994.710857,-4802.768530,-17099.388257,-8690.952026
2994.711105,-5679.046338,-8145.074048,-9873.687646
2994.711352,-5190.629199,-2753.331909,-8221.688501
2994.711600,-5894.524487,-33.518823,-8125.920435
2994.711848,-6775.590698,1924.938135,-8489.839087
2994.712096,-7187.393384,2092.532251,-9222.464795
2994.712343,-5396.530542,311.246216,-9902.418066
2994.712591,-2537.853760,1168.370410,-8087.613208
2994.712839,-1130.063184,129.286890,-5731.718774
2994.713086,-28.730420,-210.689746,-5171.475586
2994.713334,814.028564,7201.758594,-5621.585498
2994.713582,684.741675,15873.557007,-7220.912207
2994.713830,723.048901,23458.387866,-9792.284790
2994.714077,2312.798804,23611.616772,-7350.199097
2994.714325,2825.157959,18464.083203,-6052.541797
2994.714573,4055.777612,13862.427612,-4831.498950
2994.714821,3830.722656,15567.099194,-5315.127686
2994.715068,2561.795776,23424.869043,-10180.145459
2994.715316,1604.115112,32225.954346,-9792.284790
2994.715564,1019.929907,37047.876489,-10448.296045
2994.715811,1857.900488,37067.030103,-8844.180933
2994.716059,3016.694092,34529.176343,-6684.611035
2994.716307,3840.299463,32465.374512,-10429.142432
2994.716555,3840.299463,30593.108813,-11243.170996
2994.716802,3112.462158,27313.052539,-12277.466113
2994.717050,2360.682837,21677.101831,-12076.353174
2994.717298,2533.065356,14456.189624,-9188.945972
2994.717545,2619.256616,8987.833032,-10189.722266
2994.717793,2772.485522,5635.950708,-11501.744775
2994.718041,3481.169214,5367.800122,-12564.770312
2994.718289,1776.497632,9911.994873,-14676.456177
2994.718536,-785.298145,7230.489014,-10745.177051
2994.718784,196.324536,2566.584180,-11894.393848
2994.719032,1814.804858,-3299.209888,-11812.990991
2994.719280,2978.386865,-6277.596753,-12334.926953
2994.719527,3629.609717,-5664.681128,-14513.650464
2994.719775,-670.376465,-4955.997437,-13450.624927
2994.720023,-2863.465186,-7953.537915,-13086.706274
2994.720270,-943.315454,-13900.734839,-11865.663428
2994.720518,1235.408057,-19335.572607,-12650.961572
2994.720766,2202.665527,-22615.628882,-13067.552661
2994.721014,445.321509,-22965.182324,-13038.822241
2994.721261,-1675.941162,-20221.427222,-11784.260571
2994.721509,-2126.051074,-20072.986719,-11286.266626
2994.721757,-809.240161,-23295.582153,-10314.220752
2994.722005,871.489404,-27638.663965,-11267.113013
2994.722252,871.489404,-29429.526807,-10975.020410
2994.722500,244.208569,-27044.901953,-10467.449658
2994.722748,-478.840332,-24205.378784,-9097.966309
2994.722995,-1312.022510,-26815.058594,-7580.042456
2994.723243,-1235.408057,-32326.510815,-9088.389502
2994.723491,-1412.578979,-34294.544580,-8508.992700
2994.723739,-2260.126367,-30066.384448,-9629.479077
2994.723986,-3830.722656,-21164.742676,-9131.485132
2994.724234,-5937.620117,-12028.469141,-7690.175732
2994.724482,-6200.982300,-5147.533569,-8547.299927
2994.724730,-5367.800122,-1072.602344,-8173.804468
2994.724977,-5243.301636,608.127222,-9117.119922
2994.725225,-5889.736084,1656.787549,-10022.128149
2994.725473,-5875.370874,507.570752,-8590.395557
2994.725720,-3993.528369,-1781.286035,-7541.735229
2994.725968,-1963.245361,-2427.720483,-6569.689355
2994.726216,28.730420,636.857642,-5861.005664
2994.726464,1139.639990,7977.479932,-7374.141113
2994.726711,1010.353101,15873.557007,-6488.286499
2994.726959,-191.536133,20494.366211,-6900.089185
2994.727207,684.741675,19689.914453,-6828.263135
2994.727455,2427.720483,17343.596826,-6512.228516
2994.727702,3064.578125,14231.134668,-7173.028174
2994.727950,3667.916943,15389.928271,-6560.112549
2994.728198,2743.755103,22261.287036,-7723.694556
2994.728445,1307.234106,29965.827979,-8092.401611
2994.728693,1221.042847,33676.840552,-8360.552197
2994.728941,1575.384692,35501.222217,-10007.762939
2994.729189,2844.311572,36080.619019,-10218.452686
2994.729436,3993.528369,36133.291455,-9916.783276
2994.729684,4299.986182,33571.495679,-10443.507642
2994.729932,3778.050220,27925.968164,-9433.154541
2994.730179,2997.540479,21729.774268,-10381.258398
2994.730427,3050.212915,17089.811450,-11798.625781
2994.730675,3007.117285,13005.303418,-11793.837378
2994.730923,2647.987036,9428.366138,-12287.042920
2994.731170,2317.587207,7240.065820,-10912.771167
2994.731418,1747.767212,5607.220288,-10860.098730
2994.731666,483.628735,3983.951562,-12172.121240
2994.731914,229.843359,679.953271,-13134.590308
2994.732161,1853.112085,2566.584180,-14341.267944
2994.732409,1283.292090,-780.509741,-12267.889307
2994.732657,1556.231079,-3280.056274,-11731.588135
2994.732904,1312.022510,-4788.403320,-11621.454858
2994.733152,-1584.961499,-8403.647827,-13603.853833
2994.733400,-244.208569,-12373.234180,-14518.438867
2994.733648,828.393774,-16280.571289,-13915.100049
2994.733895,1273.715283,-19388.245044,-13278.242407
2994.734143,565.031592,-22074.539307,-9658.209497
2994.734391,-780.509741,-22802.376611,-11468.225952
2994.734639,-727.837305,-22615.628882,-12272.677710
2994.734886,-167.594116,-23228.544507,-13110.648291
2994.735134,349.553442,-24095.245508,-11913.547461
2994.735382,-153.228906,-26580.426831,-9864.110840
2994.735629,-483.628735,-28031.313037,-7924.807495
2994.735877,-234.631763,-26364.948682,-9131.485132
2994.736125,-143.652100,-25819.070703,-9859.322437
2994.736373,-416.591089,-28854.918408,-10711.658228
2994.736620,-1211.466040,-32393.548462,-9509.768994
2994.736868,-2767.697119,-31881.189307,-6449.979272
2994.737116,-3931.279126,-26604.368848,-7623.138086
2994.737364,-4515.464331,-17559.074976,-8092.401611
2994.737611,-5363.011719,-7934.384302,-10424.354028
2994.737859,-4831.498950,-2255.337964,-10601.524951
2994.738107,-5602.431885,450.109912,-7417.236743
2994.738354,-6708.553052,1316.810913,-7517.793213
2994.738602,-6804.321118,-38.307227,-7503.428003
2994.738850,-4745.307690,-2073.378638,-9198.522778
2994.739098,-2255.337964,-1383.848560,-10400.412012
2994.739345,-550.666382,1742.978809,-6631.938599
2994.739593,-229.843359,5123.591553,-5353.434912
2994.739841,-426.167896,7484.274390,-4084.508032
2994.740089,584.185205,15217.545752,-5865.794067
2994.740336,1517.923853,20575.769067,-9849.745630
2994.740584,2552.218970,20963.629736,-9112.331519
2994.740832,3184.288208,17319.654810,-6780.379102
2994.741079,3179.499805,15289.371802,-4807.556934
2994.741327,3289.633081,17357.962036,-3706.224170
2994.741575,2868.253589,24463.952563,-8331.821777
2994.741823,2240.972754,31866.824097,-11568.782422
2994.742070,1288.080493,36669.592627,-11420.341919
2994.742318,1910.572925,38393.417822,-9888.052856
2994.742566,2595.314600,36229.059521,-6358.999609
2994.742813,3394.977954,31847.670483,-7819.462622
2994.743061,4007.893579,28926.744458,-11415.553516
2994.743309,3299.209888,25661.053394,-12545.616699
2994.743557,2442.085693,21212.626709,-13690.045093
2994.743804,2513.911743,15179.238525,-10271.125122
2994.744052,2331.952417,9246.406812,-8259.995728
2994.744300,2628.833423,6172.251880,-10472.238062
2994.744548,3371.035937,5765.237598,-11836.933008
2994.744795,2207.453931,5430.049365,-15480.907935
2994.745043,574.608398,8250.418921,-13986.926099
2994.745291,-52.672437,3701.435767,-10084.377393
2994.745538,885.854614,-1254.561670,-12454.637036
2994.745786,3275.267871,-5798.756421,-9313.444458
2994.746034,3337.517114,-5631.162305,-15174.450122
2994.746282,316.034619,-5827.486841,-15576.676001
2994.746529,-2992.752075,-8350.975391,-12488.155859
2994.746777,-1216.254443,-13254.300391,-13508.085767
2994.747025,205.901343,-18224.663037,-9390.058911
2994.747273,1546.654272,-22122.423340,-12291.831323
2994.747520,574.608398,-22989.124341,-13781.024756
2994.747768,-1240.196460,-21691.467041,-12770.671655
2994.748016,-2135.627881,-20594.922681,-12713.210815
2994.748263,-1177.947217,-23166.295264,-9682.151514
2994.748511,320.823022,-26671.406494,-8906.430176
2994.748759,1254.561670,-28807.034375,-11123.460913
2994.749007,1225.831250,-27533.319092,-10180.145459
